%time,field.header.seq,field.header.stamp,field.header.frame_id,field.orientation.x,field.orientation.y,field.orientation.z,field.orientation.w,field.orientation_covariance0,field.orientation_covariance1,field.orientation_covariance2,field.orientation_covariance3,field.orientation_covariance4,field.orientation_covariance5,field.orientation_covariance6,field.orientation_covariance7,field.orientation_covariance8,field.angular_velocity.x,field.angular_velocity.y,field.angular_velocity.z,field.angular_velocity_covariance0,field.angular_velocity_covariance1,field.angular_velocity_covariance2,field.angular_velocity_covariance3,field.angular_velocity_covariance4,field.angular_velocity_covariance5,field.angular_velocity_covariance6,field.angular_velocity_covariance7,field.angular_velocity_covariance8,field.linear_acceleration.x,field.linear_acceleration.y,field.linear_acceleration.z,field.linear_acceleration_covariance0,field.linear_acceleration_covariance1,field.linear_acceleration_covariance2,field.linear_acceleration_covariance3,field.linear_acceleration_covariance4,field.linear_acceleration_covariance5,field.linear_acceleration_covariance6,field.linear_acceleration_covariance7,field.linear_acceleration_covariance8
1576104081171121794,20824,1576104081170519113,,0.0,0.0,0.0,0.0,0.0,0.0,0.0,0.0,0.0,0.0,0.0,0.0,0.0,-0.002,0.0,-0.0,0.0,0.0,0.0,0.0,0.0,0.0,0.0,0.0,0.0,0.357,0.387,9.67,0.0,0.0,0.0,0.0,0.0,0.0,0.0,0.0,0.0
1576104081171721281,20825,1576104081171135425,,0.0,0.0,0.0,0.0,0.0,0.0,0.0,0.0,0.0,0.0,0.0,0.0,0.0,0.001,0.001,0.0,0.0,0.0,0.0,0.0,0.0,0.0,0.0,0.0,0.0,0.388,0.368,9.69,0.0,0.0,0.0,0.0,0.0,0.0,0.0,0.0,0.0
1576104081172311819,20826,1576104081171882390,,0.0,0.0,0.0,0.0,0.0,0.0,0.0,0.0,0.0,0.0,0.0,0.0,0.0,-0.002,0.003,0.0,0.0,0.0,0.0,0.0,0.0,0.0,0.0,0.0,0.0,0.347,0.373,9.66,0.0,0.0,0.0,0.0,0.0,0.0,0.0,0.0,0.0
1576104081173295566,20827,1576104081172863721,,0.0,0.0,0.0,0.0,0.0,0.0,0.0,0.0,0.0,0.0,0.0,0.0,0.0,0.001,0.001,0.0,0.0,0.0,0.0,0.0,0.0,0.0,0.0,0.0,0.0,0.371,0.382,9.69,0.0,0.0,0.0,0.0,0.0,0.0,0.0,0.0,0.0
1576104081174946147,20828,1576104081174273967,,0.0,0.0,0.0,0.0,0.0,0.0,0.0,0.0,0.0,0.0,0.0,0.0,0.0,0.001,0.001,0.0,0.0,0.0,0.0,0.0,0.0,0.0,0.0,0.0,0.0,0.369,0.416,9.69,0.0,0.0,0.0,0.0,0.0,0.0,0.0,0.0,0.0
1576104081175183578,20829,1576104081174556016,,0.0,0.0,0.0,0.0,0.0,0.0,0.0,0.0,0.0,0.0,0.0,0.0,0.0,-0.0,0.001,0.0,0.0,0.0,0.0,0.0,0.0,0.0,0.0,0.0,0.0,0.39,0.385,9.67,0.0,0.0,0.0,0.0,0.0,0.0,0.0,0.0,0.0
1576104081175591869,20830,1576104081174870014,,0.0,0.0,0.0,0.0,0.0,0.0,0.0,0.0,0.0,0.0,0.0,0.0,0.0,-0.002,0.001,0.0,0.0,0.0,0.0,0.0,0.0,0.0,0.0,0.0,0.0,0.388,0.394,9.7,0.0,0.0,0.0,0.0,0.0,0.0,0.0,0.0,0.0
1576104081175623360,20831,1576104081175275564,,0.0,0.0,0.0,0.0,0.0,0.0,0.0,0.0,0.0,0.0,0.0,0.0,0.0,0.003,-0.001,0.0,0.0,0.0,0.0,0.0,0.0,0.0,0.0,0.0,0.0,0.39,0.399,9.67,0.0,0.0,0.0,0.0,0.0,0.0,0.0,0.0,0.0
1576104081176191027,20832,1576104081175853013,,0.0,0.0,0.0,0.0,0.0,0.0,0.0,0.0,0.0,0.0,0.0,0.0,0.0,0.001,0.0,0.0,0.0,0.0,0.0,0.0,0.0,0.0,0.0,0.0,0.0,0.417,0.394,9.7,0.0,0.0,0.0,0.0,0.0,0.0,0.0,0.0,0.0
1576104081176504010,20833,1576104081176182031,,0.0,0.0,0.0,0.0,0.0,0.0,0.0,0.0,0.0,0.0,0.0,0.0,0.0,0.001,0.001,0.0,0.0,0.0,0.0,0.0,0.0,0.0,0.0,0.0,0.0,0.419,0.406,9.69,0.0,0.0,0.0,0.0,0.0,0.0,0.0,0.0,0.0
1576104081177045530,20834,1576104081176641702,,0.0,0.0,0.0,0.0,0.0,0.0,0.0,0.0,0.0,0.0,0.0,0.0,0.0,-0.0,0.0,0.0,0.0,0.0,0.0,0.0,0.0,0.0,0.0,0.0,0.0,0.431,0.363,9.72,0.0,0.0,0.0,0.0,0.0,0.0,0.0,0.0,0.0
1576104081179720613,20835,1576104081179344415,,0.0,0.0,0.0,0.0,0.0,0.0,0.0,0.0,0.0,0.0,0.0,0.0,0.0,-0.0,-0.001,0.0,0.0,0.0,0.0,0.0,0.0,0.0,0.0,0.0,0.0,0.455,0.363,9.69,0.0,0.0,0.0,0.0,0.0,0.0,0.0,0.0,0.0
1576104081182940827,20836,1576104081182464599,,0.0,0.0,0.0,0.0,0.0,0.0,0.0,0.0,0.0,0.0,0.0,0.0,0.0,-0.003,0.0,0.0,0.0,0.0,0.0,0.0,0.0,0.0,0.0,0.0,0.0,0.469,0.347,9.7,0.0,0.0,0.0,0.0,0.0,0.0,0.0,0.0,0.0
1576104081185510661,20837,1576104081184841871,,0.0,0.0,0.0,0.0,0.0,0.0,0.0,0.0,0.0,0.0,0.0,0.0,0.0,0.001,-0.001,0.0,0.0,0.0,0.0,0.0,0.0,0.0,0.0,0.0,0.0,0.462,0.327,9.69,0.0,0.0,0.0,0.0,0.0,0.0,0.0,0.0,0.0
1576104081190043548,20838,1576104081189248800,,0.0,0.0,0.0,0.0,0.0,0.0,0.0,0.0,0.0,0.0,0.0,0.0,0.0,0.001,0.0,0.0,0.0,0.0,0.0,0.0,0.0,0.0,0.0,0.0,0.0,0.467,0.344,9.69,0.0,0.0,0.0,0.0,0.0,0.0,0.0,0.0,0.0
1576104081192126198,20839,1576104081191477775,,0.0,0.0,0.0,0.0,0.0,0.0,0.0,0.0,0.0,0.0,0.0,0.0,0.0,0.002,-0.001,0.0,0.0,0.0,0.0,0.0,0.0,0.0,0.0,0.0,0.0,0.481,0.301,9.69,0.0,0.0,0.0,0.0,0.0,0.0,0.0,0.0,0.0
1576104081195875582,20840,1576104081195063352,,0.0,0.0,0.0,0.0,0.0,0.0,0.0,0.0,0.0,0.0,0.0,0.0,0.0,-0.0,0.0,0.0,0.0,0.0,0.0,0.0,0.0,0.0,0.0,0.0,0.0,0.498,0.323,9.68,0.0,0.0,0.0,0.0,0.0,0.0,0.0,0.0,0.0
1576104081197888247,20841,1576104081197236537,,0.0,0.0,0.0,0.0,0.0,0.0,0.0,0.0,0.0,0.0,0.0,0.0,0.0,0.001,0.001,0.0,0.0,0.0,0.0,0.0,0.0,0.0,0.0,0.0,0.0,0.465,0.315,9.67,0.0,0.0,0.0,0.0,0.0,0.0,0.0,0.0,0.0
1576104081200065134,20842,1576104081199325799,,0.0,0.0,0.0,0.0,0.0,0.0,0.0,0.0,0.0,0.0,0.0,0.0,0.0,-0.002,0.0,0.0,0.0,0.0,0.0,0.0,0.0,0.0,0.0,0.0,0.0,0.445,0.325,9.66,0.0,0.0,0.0,0.0,0.0,0.0,0.0,0.0,0.0
1576104081202364556,20843,1576104081201719284,,0.0,0.0,0.0,0.0,0.0,0.0,0.0,0.0,0.0,0.0,0.0,0.0,0.0,-0.002,0.001,0.0,0.0,0.0,0.0,0.0,0.0,0.0,0.0,0.0,0.0,0.453,0.318,9.67,0.0,0.0,0.0,0.0,0.0,0.0,0.0,0.0,0.0
1576104081205640643,20844,1576104081204914093,,0.0,0.0,0.0,0.0,0.0,0.0,0.0,0.0,0.0,0.0,0.0,0.0,0.0,-0.004,0.001,0.0,0.0,0.0,0.0,0.0,0.0,0.0,0.0,0.0,0.0,0.448,0.315,9.68,0.0,0.0,0.0,0.0,0.0,0.0,0.0,0.0,0.0
1576104081209366236,20845,1576104081208685159,,0.0,0.0,0.0,0.0,0.0,0.0,0.0,0.0,0.0,0.0,0.0,0.0,0.0,-0.0,-0.001,-0.0,0.0,0.0,0.0,0.0,0.0,0.0,0.0,0.0,0.0,0.438,0.32,9.7,0.0,0.0,0.0,0.0,0.0,0.0,0.0,0.0,0.0
1576104081212231246,20846,1576104081211579561,,0.0,0.0,0.0,0.0,0.0,0.0,0.0,0.0,0.0,0.0,0.0,0.0,0.0,-0.0,-0.001,0.0,0.0,0.0,0.0,0.0,0.0,0.0,0.0,0.0,0.0,0.436,0.335,9.7,0.0,0.0,0.0,0.0,0.0,0.0,0.0,0.0,0.0
1576104081214457209,20847,1576104081213806629,,0.0,0.0,0.0,0.0,0.0,0.0,0.0,0.0,0.0,0.0,0.0,0.0,0.0,0.001,0.001,-0.0,0.0,0.0,0.0,0.0,0.0,0.0,0.0,0.0,0.0,0.431,0.308,9.69,0.0,0.0,0.0,0.0,0.0,0.0,0.0,0.0,0.0
1576104081217866985,20848,1576104081217344284,,0.0,0.0,0.0,0.0,0.0,0.0,0.0,0.0,0.0,0.0,0.0,0.0,0.0,0.002,-0.001,-0.0,0.0,0.0,0.0,0.0,0.0,0.0,0.0,0.0,0.0,0.417,0.313,9.67,0.0,0.0,0.0,0.0,0.0,0.0,0.0,0.0,0.0
1576104081218812864,20849,1576104081218294382,,0.0,0.0,0.0,0.0,0.0,0.0,0.0,0.0,0.0,0.0,0.0,0.0,0.0,0.002,0.0,-0.0,0.0,0.0,0.0,0.0,0.0,0.0,0.0,0.0,0.0,0.395,0.356,9.68,0.0,0.0,0.0,0.0,0.0,0.0,0.0,0.0,0.0
1576104081223294479,20850,1576104081222711324,,0.0,0.0,0.0,0.0,0.0,0.0,0.0,0.0,0.0,0.0,0.0,0.0,0.0,-0.002,0.003,-0.0,0.0,0.0,0.0,0.0,0.0,0.0,0.0,0.0,0.0,0.405,0.339,9.67,0.0,0.0,0.0,0.0,0.0,0.0,0.0,0.0,0.0
1576104081232353124,20851,1576104081231294155,,0.0,0.0,0.0,0.0,0.0,0.0,0.0,0.0,0.0,0.0,0.0,0.0,0.0,0.001,0.0,-0.0,0.0,0.0,0.0,0.0,0.0,0.0,0.0,0.0,0.0,0.39,0.351,9.69,0.0,0.0,0.0,0.0,0.0,0.0,0.0,0.0,0.0
1576104081232613276,20852,1576104081231842517,,0.0,0.0,0.0,0.0,0.0,0.0,0.0,0.0,0.0,0.0,0.0,0.0,0.0,-0.0,-0.001,-0.0,0.0,0.0,0.0,0.0,0.0,0.0,0.0,0.0,0.0,0.374,0.363,9.69,0.0,0.0,0.0,0.0,0.0,0.0,0.0,0.0,0.0
1576104081234585394,20853,1576104081233795166,,0.0,0.0,0.0,0.0,0.0,0.0,0.0,0.0,0.0,0.0,0.0,0.0,0.0,-0.003,-0.001,-0.0,0.0,0.0,0.0,0.0,0.0,0.0,0.0,0.0,0.0,0.347,0.378,9.67,0.0,0.0,0.0,0.0,0.0,0.0,0.0,0.0,0.0
1576104081236872032,20854,1576104081236121892,,0.0,0.0,0.0,0.0,0.0,0.0,0.0,0.0,0.0,0.0,0.0,0.0,0.0,0.002,-0.002,-0.0,0.0,0.0,0.0,0.0,0.0,0.0,0.0,0.0,0.0,0.357,0.373,9.7,0.0,0.0,0.0,0.0,0.0,0.0,0.0,0.0,0.0
1576104081241430842,20855,1576104081240674972,,0.0,0.0,0.0,0.0,0.0,0.0,0.0,0.0,0.0,0.0,0.0,0.0,0.0,-0.002,-0.001,-0.0,0.0,0.0,0.0,0.0,0.0,0.0,0.0,0.0,0.0,0.333,0.37,9.68,0.0,0.0,0.0,0.0,0.0,0.0,0.0,0.0,0.0
1576104081267065842,20856,1576104081266273498,,0.0,0.0,0.0,0.0,0.0,0.0,0.0,0.0,0.0,0.0,0.0,0.0,0.0,0.002,0.0,-0.0,0.0,0.0,0.0,0.0,0.0,0.0,0.0,0.0,0.0,0.333,0.368,9.69,0.0,0.0,0.0,0.0,0.0,0.0,0.0,0.0,0.0
1576104081268591321,20857,1576104081267675399,,0.0,0.0,0.0,0.0,0.0,0.0,0.0,0.0,0.0,0.0,0.0,0.0,0.0,-0.0,-0.001,-0.0,0.0,0.0,0.0,0.0,0.0,0.0,0.0,0.0,0.0,0.357,0.368,9.68,0.0,0.0,0.0,0.0,0.0,0.0,0.0,0.0,0.0
1576104081270249090,20858,1576104081269535064,,0.0,0.0,0.0,0.0,0.0,0.0,0.0,0.0,0.0,0.0,0.0,0.0,0.0,-0.0,-0.001,-0.0,0.0,0.0,0.0,0.0,0.0,0.0,0.0,0.0,0.0,0.357,0.373,9.69,0.0,0.0,0.0,0.0,0.0,0.0,0.0,0.0,0.0
1576104081271796457,20859,1576104081271282434,,0.0,0.0,0.0,0.0,0.0,0.0,0.0,0.0,0.0,0.0,0.0,0.0,0.0,-0.0,-0.001,-0.0,0.0,0.0,0.0,0.0,0.0,0.0,0.0,0.0,0.0,0.338,0.373,9.7,0.0,0.0,0.0,0.0,0.0,0.0,0.0,0.0,0.0
1576104081272585722,20860,1576104081271830081,,0.0,0.0,0.0,0.0,0.0,0.0,0.0,0.0,0.0,0.0,0.0,0.0,0.0,-0.0,0.001,0.0,0.0,0.0,0.0,0.0,0.0,0.0,0.0,0.0,0.0,0.357,0.354,9.67,0.0,0.0,0.0,0.0,0.0,0.0,0.0,0.0,0.0
1576104081272634093,20861,1576104081272205114,,0.0,0.0,0.0,0.0,0.0,0.0,0.0,0.0,0.0,0.0,0.0,0.0,0.0,0.001,-0.002,0.0,0.0,0.0,0.0,0.0,0.0,0.0,0.0,0.0,0.0,0.376,0.363,9.67,0.0,0.0,0.0,0.0,0.0,0.0,0.0,0.0,0.0
1576104081273162617,20862,1576104081272749423,,0.0,0.0,0.0,0.0,0.0,0.0,0.0,0.0,0.0,0.0,0.0,0.0,0.0,-0.0,-0.001,-0.0,0.0,0.0,0.0,0.0,0.0,0.0,0.0,0.0,0.0,0.388,0.354,9.69,0.0,0.0,0.0,0.0,0.0,0.0,0.0,0.0,0.0
1576104081273695562,20863,1576104081273314952,,0.0,0.0,0.0,0.0,0.0,0.0,0.0,0.0,0.0,0.0,0.0,0.0,0.0,0.001,0.0,0.0,0.0,0.0,0.0,0.0,0.0,0.0,0.0,0.0,0.0,0.402,0.37,9.69,0.0,0.0,0.0,0.0,0.0,0.0,0.0,0.0,0.0
1576104081274858584,20864,1576104081273809671,,0.0,0.0,0.0,0.0,0.0,0.0,0.0,0.0,0.0,0.0,0.0,0.0,0.0,-0.0,-0.001,0.0,0.0,0.0,0.0,0.0,0.0,0.0,0.0,0.0,0.0,0.405,0.359,9.68,0.0,0.0,0.0,0.0,0.0,0.0,0.0,0.0,0.0
1576104081275384840,20865,1576104081274329185,,0.0,0.0,0.0,0.0,0.0,0.0,0.0,0.0,0.0,0.0,0.0,0.0,0.0,-0.0,-0.001,0.0,0.0,0.0,0.0,0.0,0.0,0.0,0.0,0.0,0.0,0.405,0.332,9.69,0.0,0.0,0.0,0.0,0.0,0.0,0.0,0.0,0.0
1576104081275593363,20866,1576104081274610757,,0.0,0.0,0.0,0.0,0.0,0.0,0.0,0.0,0.0,0.0,0.0,0.0,0.0,-0.002,-0.002,0.0,0.0,0.0,0.0,0.0,0.0,0.0,0.0,0.0,0.0,0.412,0.327,9.67,0.0,0.0,0.0,0.0,0.0,0.0,0.0,0.0,0.0
1576104081277784120,20867,1576104081277511596,,0.0,0.0,0.0,0.0,0.0,0.0,0.0,0.0,0.0,0.0,0.0,0.0,0.0,-0.004,0.0,0.0,0.0,0.0,0.0,0.0,0.0,0.0,0.0,0.0,0.0,0.424,0.342,9.68,0.0,0.0,0.0,0.0,0.0,0.0,0.0,0.0,0.0
1576104081278264439,20868,1576104081277844667,,0.0,0.0,0.0,0.0,0.0,0.0,0.0,0.0,0.0,0.0,0.0,0.0,0.0,-0.0,-0.002,0.0,0.0,0.0,0.0,0.0,0.0,0.0,0.0,0.0,0.0,0.412,0.325,9.69,0.0,0.0,0.0,0.0,0.0,0.0,0.0,0.0,0.0
1576104081284872624,20869,1576104081284113645,,0.0,0.0,0.0,0.0,0.0,0.0,0.0,0.0,0.0,0.0,0.0,0.0,0.0,-0.003,-0.001,0.0,0.0,0.0,0.0,0.0,0.0,0.0,0.0,0.0,0.0,0.412,0.327,9.68,0.0,0.0,0.0,0.0,0.0,0.0,0.0,0.0,0.0
1576104081287021766,20870,1576104081286382198,,0.0,0.0,0.0,0.0,0.0,0.0,0.0,0.0,0.0,0.0,0.0,0.0,0.0,-0.002,-0.002,0.0,0.0,0.0,0.0,0.0,0.0,0.0,0.0,0.0,0.0,0.445,0.327,9.68,0.0,0.0,0.0,0.0,0.0,0.0,0.0,0.0,0.0
1576104081288014332,20871,1576104081287438154,,0.0,0.0,0.0,0.0,0.0,0.0,0.0,0.0,0.0,0.0,0.0,0.0,0.0,-0.0,-0.001,-0.0,0.0,0.0,0.0,0.0,0.0,0.0,0.0,0.0,0.0,0.422,0.373,9.7,0.0,0.0,0.0,0.0,0.0,0.0,0.0,0.0,0.0
1576104081294870528,20872,1576104081294169425,,0.0,0.0,0.0,0.0,0.0,0.0,0.0,0.0,0.0,0.0,0.0,0.0,0.0,-0.002,-0.001,0.0,0.0,0.0,0.0,0.0,0.0,0.0,0.0,0.0,0.0,0.457,0.347,9.7,0.0,0.0,0.0,0.0,0.0,0.0,0.0,0.0,0.0
1576104081295868444,20873,1576104081295194387,,0.0,0.0,0.0,0.0,0.0,0.0,0.0,0.0,0.0,0.0,0.0,0.0,0.0,-0.002,-0.001,-0.0,0.0,0.0,0.0,0.0,0.0,0.0,0.0,0.0,0.0,0.448,0.347,9.68,0.0,0.0,0.0,0.0,0.0,0.0,0.0,0.0,0.0
1576104081300004991,20874,1576104081299360275,,0.0,0.0,0.0,0.0,0.0,0.0,0.0,0.0,0.0,0.0,0.0,0.0,0.0,-0.004,-0.001,-0.0,0.0,0.0,0.0,0.0,0.0,0.0,0.0,0.0,0.0,0.457,0.332,9.68,0.0,0.0,0.0,0.0,0.0,0.0,0.0,0.0,0.0
1576104081301146721,20875,1576104081300517797,,0.0,0.0,0.0,0.0,0.0,0.0,0.0,0.0,0.0,0.0,0.0,0.0,0.0,-0.0,-0.001,-0.0,0.0,0.0,0.0,0.0,0.0,0.0,0.0,0.0,0.0,0.455,0.37,9.7,0.0,0.0,0.0,0.0,0.0,0.0,0.0,0.0,0.0
1576104081303272523,20876,1576104081302761077,,0.0,0.0,0.0,0.0,0.0,0.0,0.0,0.0,0.0,0.0,0.0,0.0,0.0,-0.0,-0.001,-0.0,0.0,0.0,0.0,0.0,0.0,0.0,0.0,0.0,0.0,0.465,0.342,9.67,0.0,0.0,0.0,0.0,0.0,0.0,0.0,0.0,0.0
1576104081309123176,20877,1576104081308441400,,0.0,0.0,0.0,0.0,0.0,0.0,0.0,0.0,0.0,0.0,0.0,0.0,0.0,-0.002,0.0,-0.0,0.0,0.0,0.0,0.0,0.0,0.0,0.0,0.0,0.0,0.481,0.361,9.66,0.0,0.0,0.0,0.0,0.0,0.0,0.0,0.0,0.0
1576104081311390587,20878,1576104081310665369,,0.0,0.0,0.0,0.0,0.0,0.0,0.0,0.0,0.0,0.0,0.0,0.0,0.0,-0.002,0.0,-0.0,0.0,0.0,0.0,0.0,0.0,0.0,0.0,0.0,0.0,0.481,0.349,9.67,0.0,0.0,0.0,0.0,0.0,0.0,0.0,0.0,0.0
1576104081313966807,20879,1576104081313275337,,0.0,0.0,0.0,0.0,0.0,0.0,0.0,0.0,0.0,0.0,0.0,0.0,0.0,0.001,-0.001,-0.0,0.0,0.0,0.0,0.0,0.0,0.0,0.0,0.0,0.0,0.467,0.356,9.68,0.0,0.0,0.0,0.0,0.0,0.0,0.0,0.0,0.0
1576104081316024568,20880,1576104081315265893,,0.0,0.0,0.0,0.0,0.0,0.0,0.0,0.0,0.0,0.0,0.0,0.0,0.0,-0.0,-0.002,-0.0,0.0,0.0,0.0,0.0,0.0,0.0,0.0,0.0,0.0,0.479,0.373,9.67,0.0,0.0,0.0,0.0,0.0,0.0,0.0,0.0,0.0
1576104081320414352,20881,1576104081319745063,,0.0,0.0,0.0,0.0,0.0,0.0,0.0,0.0,0.0,0.0,0.0,0.0,0.0,-0.0,0.001,-0.0,0.0,0.0,0.0,0.0,0.0,0.0,0.0,0.0,0.0,0.426,0.37,9.7,0.0,0.0,0.0,0.0,0.0,0.0,0.0,0.0,0.0
1576104081324069570,20882,1576104081323077440,,0.0,0.0,0.0,0.0,0.0,0.0,0.0,0.0,0.0,0.0,0.0,0.0,0.0,-0.0,0.001,-0.0,0.0,0.0,0.0,0.0,0.0,0.0,0.0,0.0,0.0,0.424,0.375,9.67,0.0,0.0,0.0,0.0,0.0,0.0,0.0,0.0,0.0
1576104081324109489,20883,1576104081323507547,,0.0,0.0,0.0,0.0,0.0,0.0,0.0,0.0,0.0,0.0,0.0,0.0,0.0,0.001,-0.001,-0.0,0.0,0.0,0.0,0.0,0.0,0.0,0.0,0.0,0.0,0.433,0.378,9.68,0.0,0.0,0.0,0.0,0.0,0.0,0.0,0.0,0.0
1576104081335344807,20884,1576104081333955764,,0.0,0.0,0.0,0.0,0.0,0.0,0.0,0.0,0.0,0.0,0.0,0.0,0.0,0.001,0.0,-0.0,0.0,0.0,0.0,0.0,0.0,0.0,0.0,0.0,0.0,0.412,0.373,9.68,0.0,0.0,0.0,0.0,0.0,0.0,0.0,0.0,0.0
1576104081335373217,20885,1576104081334549427,,0.0,0.0,0.0,0.0,0.0,0.0,0.0,0.0,0.0,0.0,0.0,0.0,0.0,0.002,0.0,-0.0,0.0,0.0,0.0,0.0,0.0,0.0,0.0,0.0,0.0,0.405,0.392,9.68,0.0,0.0,0.0,0.0,0.0,0.0,0.0,0.0,0.0
1576104081336809722,20886,1576104081336345195,,0.0,0.0,0.0,0.0,0.0,0.0,0.0,0.0,0.0,0.0,0.0,0.0,0.0,-0.002,0.0,-0.0,0.0,0.0,0.0,0.0,0.0,0.0,0.0,0.0,0.0,0.412,0.361,9.67,0.0,0.0,0.0,0.0,0.0,0.0,0.0,0.0,0.0
1576104081338561667,20887,1576104081337818384,,0.0,0.0,0.0,0.0,0.0,0.0,0.0,0.0,0.0,0.0,0.0,0.0,0.0,-0.003,-0.001,-0.0,0.0,0.0,0.0,0.0,0.0,0.0,0.0,0.0,0.0,0.41,0.399,9.67,0.0,0.0,0.0,0.0,0.0,0.0,0.0,0.0,0.0
1576104081340438710,20888,1576104081339692354,,0.0,0.0,0.0,0.0,0.0,0.0,0.0,0.0,0.0,0.0,0.0,0.0,0.0,-0.0,0.001,0.0,0.0,0.0,0.0,0.0,0.0,0.0,0.0,0.0,0.0,0.393,0.392,9.66,0.0,0.0,0.0,0.0,0.0,0.0,0.0,0.0,0.0
1576104081343602721,20889,1576104081343043565,,0.0,0.0,0.0,0.0,0.0,0.0,0.0,0.0,0.0,0.0,0.0,0.0,0.0,0.001,-0.001,-0.0,0.0,0.0,0.0,0.0,0.0,0.0,0.0,0.0,0.0,0.41,0.366,9.69,0.0,0.0,0.0,0.0,0.0,0.0,0.0,0.0,0.0
1576104081364963295,20890,1576104081364085435,,0.0,0.0,0.0,0.0,0.0,0.0,0.0,0.0,0.0,0.0,0.0,0.0,0.0,0.002,-0.001,0.0,0.0,0.0,0.0,0.0,0.0,0.0,0.0,0.0,0.0,0.412,0.368,9.69,0.0,0.0,0.0,0.0,0.0,0.0,0.0,0.0,0.0
1576104081366236196,20891,1576104081365499019,,0.0,0.0,0.0,0.0,0.0,0.0,0.0,0.0,0.0,0.0,0.0,0.0,0.0,-0.002,-0.001,0.0,0.0,0.0,0.0,0.0,0.0,0.0,0.0,0.0,0.0,0.41,0.378,9.7,0.0,0.0,0.0,0.0,0.0,0.0,0.0,0.0,0.0
1576104081368540530,20892,1576104081367489576,,0.0,0.0,0.0,0.0,0.0,0.0,0.0,0.0,0.0,0.0,0.0,0.0,0.0,-0.0,-0.001,0.0,0.0,0.0,0.0,0.0,0.0,0.0,0.0,0.0,0.0,0.441,0.356,9.69,0.0,0.0,0.0,0.0,0.0,0.0,0.0,0.0,0.0
1576104081368576481,20893,1576104081367950677,,0.0,0.0,0.0,0.0,0.0,0.0,0.0,0.0,0.0,0.0,0.0,0.0,0.0,-0.003,-0.001,0.0,0.0,0.0,0.0,0.0,0.0,0.0,0.0,0.0,0.0,0.436,0.38,9.67,0.0,0.0,0.0,0.0,0.0,0.0,0.0,0.0,0.0
1576104081369638327,20894,1576104081369177103,,0.0,0.0,0.0,0.0,0.0,0.0,0.0,0.0,0.0,0.0,0.0,0.0,0.0,-0.0,0.0,0.0,0.0,0.0,0.0,0.0,0.0,0.0,0.0,0.0,0.0,0.431,0.385,9.69,0.0,0.0,0.0,0.0,0.0,0.0,0.0,0.0,0.0
1576104081370125677,20895,1576104081369762420,,0.0,0.0,0.0,0.0,0.0,0.0,0.0,0.0,0.0,0.0,0.0,0.0,0.0,0.001,0.0,0.0,0.0,0.0,0.0,0.0,0.0,0.0,0.0,0.0,0.0,0.436,0.368,9.67,0.0,0.0,0.0,0.0,0.0,0.0,0.0,0.0,0.0
1576104081370543084,20896,1576104081370256423,,0.0,0.0,0.0,0.0,0.0,0.0,0.0,0.0,0.0,0.0,0.0,0.0,0.0,-0.002,0.0,0.0,0.0,0.0,0.0,0.0,0.0,0.0,0.0,0.0,0.0,0.438,0.356,9.68,0.0,0.0,0.0,0.0,0.0,0.0,0.0,0.0,0.0
1576104081371884379,20897,1576104081370897293,,0.0,0.0,0.0,0.0,0.0,0.0,0.0,0.0,0.0,0.0,0.0,0.0,0.0,0.002,-0.002,0.0,0.0,0.0,0.0,0.0,0.0,0.0,0.0,0.0,0.0,0.455,0.39,9.68,0.0,0.0,0.0,0.0,0.0,0.0,0.0,0.0,0.0
1576104081372014795,20898,1576104081371452569,,0.0,0.0,0.0,0.0,0.0,0.0,0.0,0.0,0.0,0.0,0.0,0.0,0.0,-0.0,-0.001,0.0,0.0,0.0,0.0,0.0,0.0,0.0,0.0,0.0,0.0,0.445,0.375,9.68,0.0,0.0,0.0,0.0,0.0,0.0,0.0,0.0,0.0
1576104081373326135,20899,1576104081372848033,,0.0,0.0,0.0,0.0,0.0,0.0,0.0,0.0,0.0,0.0,0.0,0.0,0.0,-0.002,0.001,0.0,0.0,0.0,0.0,0.0,0.0,0.0,0.0,0.0,0.0,0.469,0.373,9.7,0.0,0.0,0.0,0.0,0.0,0.0,0.0,0.0,0.0
1576104081374538946,20900,1576104081374123573,,0.0,0.0,0.0,0.0,0.0,0.0,0.0,0.0,0.0,0.0,0.0,0.0,0.0,0.001,-0.001,0.0,0.0,0.0,0.0,0.0,0.0,0.0,0.0,0.0,0.0,0.477,0.354,9.68,0.0,0.0,0.0,0.0,0.0,0.0,0.0,0.0,0.0
1576104081380758210,20901,1576104081380249738,,0.0,0.0,0.0,0.0,0.0,0.0,0.0,0.0,0.0,0.0,0.0,0.0,0.0,0.001,0.0,0.0,0.0,0.0,0.0,0.0,0.0,0.0,0.0,0.0,0.0,0.481,0.368,9.69,0.0,0.0,0.0,0.0,0.0,0.0,0.0,0.0,0.0
1576104081381743011,20902,1576104081381260395,,0.0,0.0,0.0,0.0,0.0,0.0,0.0,0.0,0.0,0.0,0.0,0.0,0.0,-0.002,0.0,0.0,0.0,0.0,0.0,0.0,0.0,0.0,0.0,0.0,0.0,0.472,0.356,9.69,0.0,0.0,0.0,0.0,0.0,0.0,0.0,0.0,0.0
1576104081388172967,20903,1576104081387484312,,0.0,0.0,0.0,0.0,0.0,0.0,0.0,0.0,0.0,0.0,0.0,0.0,0.0,-0.0,0.001,0.0,0.0,0.0,0.0,0.0,0.0,0.0,0.0,0.0,0.0,0.465,0.351,9.69,0.0,0.0,0.0,0.0,0.0,0.0,0.0,0.0,0.0
1576104081388512480,20904,1576104081388032436,,0.0,0.0,0.0,0.0,0.0,0.0,0.0,0.0,0.0,0.0,0.0,0.0,0.0,-0.003,0.0,-0.0,0.0,0.0,0.0,0.0,0.0,0.0,0.0,0.0,0.0,0.474,0.349,9.69,0.0,0.0,0.0,0.0,0.0,0.0,0.0,0.0,0.0
1576104081391164605,20905,1576104081390710592,,0.0,0.0,0.0,0.0,0.0,0.0,0.0,0.0,0.0,0.0,0.0,0.0,0.0,-0.003,0.001,-0.0,0.0,0.0,0.0,0.0,0.0,0.0,0.0,0.0,0.0,0.46,0.354,9.67,0.0,0.0,0.0,0.0,0.0,0.0,0.0,0.0,0.0
1576104081397067914,20906,1576104081396353960,,0.0,0.0,0.0,0.0,0.0,0.0,0.0,0.0,0.0,0.0,0.0,0.0,0.0,-0.002,0.001,-0.0,0.0,0.0,0.0,0.0,0.0,0.0,0.0,0.0,0.0,0.426,0.354,9.69,0.0,0.0,0.0,0.0,0.0,0.0,0.0,0.0,0.0
1576104081402208361,20907,1576104081401439189,,0.0,0.0,0.0,0.0,0.0,0.0,0.0,0.0,0.0,0.0,0.0,0.0,0.0,-0.002,0.001,-0.0,0.0,0.0,0.0,0.0,0.0,0.0,0.0,0.0,0.0,0.412,0.356,9.67,0.0,0.0,0.0,0.0,0.0,0.0,0.0,0.0,0.0
1576104081404495653,20908,1576104081403733968,,0.0,0.0,0.0,0.0,0.0,0.0,0.0,0.0,0.0,0.0,0.0,0.0,0.0,-0.002,0.0,-0.0,0.0,0.0,0.0,0.0,0.0,0.0,0.0,0.0,0.0,0.424,0.359,9.68,0.0,0.0,0.0,0.0,0.0,0.0,0.0,0.0,0.0
1576104081407895103,20909,1576104081407060384,,0.0,0.0,0.0,0.0,0.0,0.0,0.0,0.0,0.0,0.0,0.0,0.0,0.0,0.001,-0.001,-0.0,0.0,0.0,0.0,0.0,0.0,0.0,0.0,0.0,0.0,0.412,0.359,9.67,0.0,0.0,0.0,0.0,0.0,0.0,0.0,0.0,0.0
1576104081411187351,20910,1576104081410382270,,0.0,0.0,0.0,0.0,0.0,0.0,0.0,0.0,0.0,0.0,0.0,0.0,0.0,-0.002,0.001,-0.0,0.0,0.0,0.0,0.0,0.0,0.0,0.0,0.0,0.0,0.398,0.39,9.68,0.0,0.0,0.0,0.0,0.0,0.0,0.0,0.0,0.0
1576104081414429930,20911,1576104081413680791,,0.0,0.0,0.0,0.0,0.0,0.0,0.0,0.0,0.0,0.0,0.0,0.0,0.0,-0.003,0.0,-0.0,0.0,0.0,0.0,0.0,0.0,0.0,0.0,0.0,0.0,0.398,0.366,9.68,0.0,0.0,0.0,0.0,0.0,0.0,0.0,0.0,0.0
1576104081419049396,20912,1576104081418153524,,0.0,0.0,0.0,0.0,0.0,0.0,0.0,0.0,0.0,0.0,0.0,0.0,0.0,0.001,-0.002,-0.0,0.0,0.0,0.0,0.0,0.0,0.0,0.0,0.0,0.0,0.398,0.37,9.67,0.0,0.0,0.0,0.0,0.0,0.0,0.0,0.0,0.0
1576104081421009718,20913,1576104081420308828,,0.0,0.0,0.0,0.0,0.0,0.0,0.0,0.0,0.0,0.0,0.0,0.0,0.0,-0.0,0.0,-0.0,0.0,0.0,0.0,0.0,0.0,0.0,0.0,0.0,0.0,0.405,0.385,9.65,0.0,0.0,0.0,0.0,0.0,0.0,0.0,0.0,0.0
1576104081425562900,20914,1576104081424868583,,0.0,0.0,0.0,0.0,0.0,0.0,0.0,0.0,0.0,0.0,0.0,0.0,0.0,-0.0,0.0,-0.0,0.0,0.0,0.0,0.0,0.0,0.0,0.0,0.0,0.0,0.393,0.382,9.7,0.0,0.0,0.0,0.0,0.0,0.0,0.0,0.0,0.0
1576104081431214766,20915,1576104081430432558,,0.0,0.0,0.0,0.0,0.0,0.0,0.0,0.0,0.0,0.0,0.0,0.0,0.0,0.001,-0.001,-0.0,0.0,0.0,0.0,0.0,0.0,0.0,0.0,0.0,0.0,0.412,0.359,9.67,0.0,0.0,0.0,0.0,0.0,0.0,0.0,0.0,0.0
1576104081433128838,20916,1576104081432430744,,0.0,0.0,0.0,0.0,0.0,0.0,0.0,0.0,0.0,0.0,0.0,0.0,0.0,-0.002,0.0,0.0,0.0,0.0,0.0,0.0,0.0,0.0,0.0,0.0,0.0,0.393,0.375,9.67,0.0,0.0,0.0,0.0,0.0,0.0,0.0,0.0,0.0
1576104081439033429,20917,1576104081438355684,,0.0,0.0,0.0,0.0,0.0,0.0,0.0,0.0,0.0,0.0,0.0,0.0,0.0,-0.002,0.001,0.0,0.0,0.0,0.0,0.0,0.0,0.0,0.0,0.0,0.0,0.407,0.373,9.67,0.0,0.0,0.0,0.0,0.0,0.0,0.0,0.0,0.0
1576104081441616046,20918,1576104081440732002,,0.0,0.0,0.0,0.0,0.0,0.0,0.0,0.0,0.0,0.0,0.0,0.0,0.0,-0.003,0.0,0.0,0.0,0.0,0.0,0.0,0.0,0.0,0.0,0.0,0.0,0.4,0.378,9.69,0.0,0.0,0.0,0.0,0.0,0.0,0.0,0.0,0.0
1576104081441658425,20919,1576104081441226243,,0.0,0.0,0.0,0.0,0.0,0.0,0.0,0.0,0.0,0.0,0.0,0.0,0.0,0.001,0.0,0.0,0.0,0.0,0.0,0.0,0.0,0.0,0.0,0.0,0.0,0.402,0.356,9.68,0.0,0.0,0.0,0.0,0.0,0.0,0.0,0.0,0.0
1576104081468609706,20920,1576104081467406988,,0.0,0.0,0.0,0.0,0.0,0.0,0.0,0.0,0.0,0.0,0.0,0.0,0.0,0.001,0.0,0.0,0.0,0.0,0.0,0.0,0.0,0.0,0.0,0.0,0.0,0.438,0.363,9.7,0.0,0.0,0.0,0.0,0.0,0.0,0.0,0.0,0.0
1576104081468655801,20921,1576104081467896223,,0.0,0.0,0.0,0.0,0.0,0.0,0.0,0.0,0.0,0.0,0.0,0.0,0.0,-0.002,-0.001,0.0,0.0,0.0,0.0,0.0,0.0,0.0,0.0,0.0,0.0,0.441,0.327,9.68,0.0,0.0,0.0,0.0,0.0,0.0,0.0,0.0,0.0
1576104081468779107,20922,1576104081468200445,,0.0,0.0,0.0,0.0,0.0,0.0,0.0,0.0,0.0,0.0,0.0,0.0,0.0,-0.0,0.0,0.0,0.0,0.0,0.0,0.0,0.0,0.0,0.0,0.0,0.0,0.438,0.342,9.68,0.0,0.0,0.0,0.0,0.0,0.0,0.0,0.0,0.0
1576104081470249871,20923,1576104081469576358,,0.0,0.0,0.0,0.0,0.0,0.0,0.0,0.0,0.0,0.0,0.0,0.0,0.0,0.002,-0.001,0.0,0.0,0.0,0.0,0.0,0.0,0.0,0.0,0.0,0.0,0.453,0.354,9.69,0.0,0.0,0.0,0.0,0.0,0.0,0.0,0.0,0.0
1576104081472359853,20924,1576104081471554756,,0.0,0.0,0.0,0.0,0.0,0.0,0.0,0.0,0.0,0.0,0.0,0.0,0.0,0.002,0.0,0.0,0.0,0.0,0.0,0.0,0.0,0.0,0.0,0.0,0.0,0.477,0.33,9.66,0.0,0.0,0.0,0.0,0.0,0.0,0.0,0.0,0.0
1576104081473604300,20925,1576104081472841739,,0.0,0.0,0.0,0.0,0.0,0.0,0.0,0.0,0.0,0.0,0.0,0.0,0.0,-0.0,0.0,0.0,0.0,0.0,0.0,0.0,0.0,0.0,0.0,0.0,0.0,0.477,0.311,9.67,0.0,0.0,0.0,0.0,0.0,0.0,0.0,0.0,0.0
1576104081473905679,20926,1576104081473330736,,0.0,0.0,0.0,0.0,0.0,0.0,0.0,0.0,0.0,0.0,0.0,0.0,0.0,-0.0,0.0,0.0,0.0,0.0,0.0,0.0,0.0,0.0,0.0,0.0,0.0,0.467,0.301,9.67,0.0,0.0,0.0,0.0,0.0,0.0,0.0,0.0,0.0
1576104081474393137,20927,1576104081474061489,,0.0,0.0,0.0,0.0,0.0,0.0,0.0,0.0,0.0,0.0,0.0,0.0,0.0,0.001,0.0,0.0,0.0,0.0,0.0,0.0,0.0,0.0,0.0,0.0,0.0,0.465,0.296,9.68,0.0,0.0,0.0,0.0,0.0,0.0,0.0,0.0,0.0
1576104081475242589,20928,1576104081474550962,,0.0,0.0,0.0,0.0,0.0,0.0,0.0,0.0,0.0,0.0,0.0,0.0,0.0,-0.003,0.0,0.0,0.0,0.0,0.0,0.0,0.0,0.0,0.0,0.0,0.0,0.484,0.301,9.67,0.0,0.0,0.0,0.0,0.0,0.0,0.0,0.0,0.0
1576104081478748816,20929,1576104081477981805,,0.0,0.0,0.0,0.0,0.0,0.0,0.0,0.0,0.0,0.0,0.0,0.0,0.0,-0.0,-0.001,0.0,0.0,0.0,0.0,0.0,0.0,0.0,0.0,0.0,0.0,0.46,0.284,9.69,0.0,0.0,0.0,0.0,0.0,0.0,0.0,0.0,0.0
1576104081482302188,20930,1576104081481581211,,0.0,0.0,0.0,0.0,0.0,0.0,0.0,0.0,0.0,0.0,0.0,0.0,0.0,-0.003,0.001,0.0,0.0,0.0,0.0,0.0,0.0,0.0,0.0,0.0,0.0,0.479,0.306,9.67,0.0,0.0,0.0,0.0,0.0,0.0,0.0,0.0,0.0
1576104081483237722,20931,1576104081482461929,,0.0,0.0,0.0,0.0,0.0,0.0,0.0,0.0,0.0,0.0,0.0,0.0,0.0,0.001,0.001,0.0,0.0,0.0,0.0,0.0,0.0,0.0,0.0,0.0,0.0,0.472,0.301,9.68,0.0,0.0,0.0,0.0,0.0,0.0,0.0,0.0,0.0
1576104081485521881,20932,1576104081484709739,,0.0,0.0,0.0,0.0,0.0,0.0,0.0,0.0,0.0,0.0,0.0,0.0,0.0,0.001,-0.001,0.0,0.0,0.0,0.0,0.0,0.0,0.0,0.0,0.0,0.0,0.472,0.282,9.68,0.0,0.0,0.0,0.0,0.0,0.0,0.0,0.0,0.0
1576104081489115824,20933,1576104081488302707,,0.0,0.0,0.0,0.0,0.0,0.0,0.0,0.0,0.0,0.0,0.0,0.0,0.0,-0.0,0.0,0.0,0.0,0.0,0.0,0.0,0.0,0.0,0.0,0.0,0.0,0.469,0.301,9.7,0.0,0.0,0.0,0.0,0.0,0.0,0.0,0.0,0.0
1576104081491478743,20934,1576104081490780353,,0.0,0.0,0.0,0.0,0.0,0.0,0.0,0.0,0.0,0.0,0.0,0.0,0.0,-0.002,0.001,-0.0,0.0,0.0,0.0,0.0,0.0,0.0,0.0,0.0,0.0,0.469,0.301,9.69,0.0,0.0,0.0,0.0,0.0,0.0,0.0,0.0,0.0
1576104081492747707,20935,1576104081491967678,,0.0,0.0,0.0,0.0,0.0,0.0,0.0,0.0,0.0,0.0,0.0,0.0,0.0,0.001,-0.001,-0.0,0.0,0.0,0.0,0.0,0.0,0.0,0.0,0.0,0.0,0.472,0.291,9.69,0.0,0.0,0.0,0.0,0.0,0.0,0.0,0.0,0.0
1576104081497867496,20936,1576104081497107982,,0.0,0.0,0.0,0.0,0.0,0.0,0.0,0.0,0.0,0.0,0.0,0.0,0.0,-0.003,0.003,-0.0,0.0,0.0,0.0,0.0,0.0,0.0,0.0,0.0,0.0,0.457,0.294,9.72,0.0,0.0,0.0,0.0,0.0,0.0,0.0,0.0,0.0
1576104081500096588,20937,1576104081499384880,,0.0,0.0,0.0,0.0,0.0,0.0,0.0,0.0,0.0,0.0,0.0,0.0,0.0,-0.0,-0.001,-0.0,0.0,0.0,0.0,0.0,0.0,0.0,0.0,0.0,0.0,0.462,0.306,9.7,0.0,0.0,0.0,0.0,0.0,0.0,0.0,0.0,0.0
1576104081503644425,20938,1576104081502730846,,0.0,0.0,0.0,0.0,0.0,0.0,0.0,0.0,0.0,0.0,0.0,0.0,0.0,-0.003,0.001,-0.0,0.0,0.0,0.0,0.0,0.0,0.0,0.0,0.0,0.0,0.453,0.311,9.69,0.0,0.0,0.0,0.0,0.0,0.0,0.0,0.0,0.0
1576104081504656183,20939,1576104081503960847,,0.0,0.0,0.0,0.0,0.0,0.0,0.0,0.0,0.0,0.0,0.0,0.0,0.0,-0.002,0.0,-0.0,0.0,0.0,0.0,0.0,0.0,0.0,0.0,0.0,0.0,0.448,0.318,9.7,0.0,0.0,0.0,0.0,0.0,0.0,0.0,0.0,0.0
1576104081508331016,20940,1576104081507585763,,0.0,0.0,0.0,0.0,0.0,0.0,0.0,0.0,0.0,0.0,0.0,0.0,0.0,0.001,0.0,-0.0,0.0,0.0,0.0,0.0,0.0,0.0,0.0,0.0,0.0,0.422,0.351,9.7,0.0,0.0,0.0,0.0,0.0,0.0,0.0,0.0,0.0
1576104081512412686,20941,1576104081511623859,,0.0,0.0,0.0,0.0,0.0,0.0,0.0,0.0,0.0,0.0,0.0,0.0,0.0,-0.002,0.001,-0.0,0.0,0.0,0.0,0.0,0.0,0.0,0.0,0.0,0.0,0.383,0.347,9.7,0.0,0.0,0.0,0.0,0.0,0.0,0.0,0.0,0.0
1576104081515539778,20942,1576104081514902114,,0.0,0.0,0.0,0.0,0.0,0.0,0.0,0.0,0.0,0.0,0.0,0.0,0.0,-0.002,0.0,-0.0,0.0,0.0,0.0,0.0,0.0,0.0,0.0,0.0,0.0,0.369,0.351,9.68,0.0,0.0,0.0,0.0,0.0,0.0,0.0,0.0,0.0
1576104081517944162,20943,1576104081517193317,,0.0,0.0,0.0,0.0,0.0,0.0,0.0,0.0,0.0,0.0,0.0,0.0,0.0,0.001,-0.001,-0.0,0.0,0.0,0.0,0.0,0.0,0.0,0.0,0.0,0.0,0.357,0.363,9.7,0.0,0.0,0.0,0.0,0.0,0.0,0.0,0.0,0.0
1576104081519807840,20944,1576104081519037246,,0.0,0.0,0.0,0.0,0.0,0.0,0.0,0.0,0.0,0.0,0.0,0.0,0.0,0.002,-0.002,-0.0,0.0,0.0,0.0,0.0,0.0,0.0,0.0,0.0,0.0,0.345,0.359,9.69,0.0,0.0,0.0,0.0,0.0,0.0,0.0,0.0,0.0
1576104081522358944,20945,1576104081521585941,,0.0,0.0,0.0,0.0,0.0,0.0,0.0,0.0,0.0,0.0,0.0,0.0,0.0,-0.0,0.0,-0.0,0.0,0.0,0.0,0.0,0.0,0.0,0.0,0.0,0.0,0.352,0.375,9.67,0.0,0.0,0.0,0.0,0.0,0.0,0.0,0.0,0.0
1576104081529093156,20946,1576104081528330802,,0.0,0.0,0.0,0.0,0.0,0.0,0.0,0.0,0.0,0.0,0.0,0.0,0.0,0.003,-0.001,-0.0,0.0,0.0,0.0,0.0,0.0,0.0,0.0,0.0,0.0,0.314,0.37,9.69,0.0,0.0,0.0,0.0,0.0,0.0,0.0,0.0,0.0
1576104081531310188,20947,1576104081530530452,,0.0,0.0,0.0,0.0,0.0,0.0,0.0,0.0,0.0,0.0,0.0,0.0,0.0,-0.0,0.0,-0.0,0.0,0.0,0.0,0.0,0.0,0.0,0.0,0.0,0.0,0.321,0.385,9.68,0.0,0.0,0.0,0.0,0.0,0.0,0.0,0.0,0.0
1576104081534798945,20948,1576104081534196138,,0.0,0.0,0.0,0.0,0.0,0.0,0.0,0.0,0.0,0.0,0.0,0.0,0.0,-0.0,-0.001,-0.0,0.0,0.0,0.0,0.0,0.0,0.0,0.0,0.0,0.0,0.316,0.416,9.69,0.0,0.0,0.0,0.0,0.0,0.0,0.0,0.0,0.0
1576104081539560103,20949,1576104081538516283,,0.0,0.0,0.0,0.0,0.0,0.0,0.0,0.0,0.0,0.0,0.0,0.0,0.0,-0.0,0.0,-0.0,0.0,0.0,0.0,0.0,0.0,0.0,0.0,0.0,0.0,0.314,0.426,9.71,0.0,0.0,0.0,0.0,0.0,0.0,0.0,0.0,0.0
1576104081540416165,20950,1576104081539875984,,0.0,0.0,0.0,0.0,0.0,0.0,0.0,0.0,0.0,0.0,0.0,0.0,0.0,0.002,0.0,0.0,0.0,0.0,0.0,0.0,0.0,0.0,0.0,0.0,0.0,0.331,0.397,9.69,0.0,0.0,0.0,0.0,0.0,0.0,0.0,0.0,0.0
1576104081541154729,20951,1576104081540497064,,0.0,0.0,0.0,0.0,0.0,0.0,0.0,0.0,0.0,0.0,0.0,0.0,0.0,-0.003,0.0,-0.0,0.0,0.0,0.0,0.0,0.0,0.0,0.0,0.0,0.0,0.343,0.392,9.68,0.0,0.0,0.0,0.0,0.0,0.0,0.0,0.0,0.0
1576104081542310607,20952,1576104081541649818,,0.0,0.0,0.0,0.0,0.0,0.0,0.0,0.0,0.0,0.0,0.0,0.0,0.0,-0.0,0.0,0.0,0.0,0.0,0.0,0.0,0.0,0.0,0.0,0.0,0.0,0.311,0.387,9.69,0.0,0.0,0.0,0.0,0.0,0.0,0.0,0.0,0.0
1576104081567611775,20953,1576104081566817760,,0.0,0.0,0.0,0.0,0.0,0.0,0.0,0.0,0.0,0.0,0.0,0.0,0.0,0.002,-0.002,0.0,0.0,0.0,0.0,0.0,0.0,0.0,0.0,0.0,0.0,0.333,0.402,9.69,0.0,0.0,0.0,0.0,0.0,0.0,0.0,0.0,0.0
1576104081569929761,20954,1576104081569011449,,0.0,0.0,0.0,0.0,0.0,0.0,0.0,0.0,0.0,0.0,0.0,0.0,0.0,0.003,-0.005,0.0,0.0,0.0,0.0,0.0,0.0,0.0,0.0,0.0,0.0,0.34,0.394,9.68,0.0,0.0,0.0,0.0,0.0,0.0,0.0,0.0,0.0
1576104081572864195,20955,1576104081571677923,,0.0,0.0,0.0,0.0,0.0,0.0,0.0,0.0,0.0,0.0,0.0,0.0,0.0,-0.002,-0.001,0.0,0.0,0.0,0.0,0.0,0.0,0.0,0.0,0.0,0.0,0.345,0.385,9.67,0.0,0.0,0.0,0.0,0.0,0.0,0.0,0.0,0.0
1576104081572914904,20956,1576104081572293996,,0.0,0.0,0.0,0.0,0.0,0.0,0.0,0.0,0.0,0.0,0.0,0.0,0.0,-0.002,-0.002,0.0,0.0,0.0,0.0,0.0,0.0,0.0,0.0,0.0,0.0,0.371,0.382,9.67,0.0,0.0,0.0,0.0,0.0,0.0,0.0,0.0,0.0
1576104081574366648,20957,1576104081573266983,,0.0,0.0,0.0,0.0,0.0,0.0,0.0,0.0,0.0,0.0,0.0,0.0,0.0,0.001,-0.001,0.0,0.0,0.0,0.0,0.0,0.0,0.0,0.0,0.0,0.0,0.386,0.392,9.67,0.0,0.0,0.0,0.0,0.0,0.0,0.0,0.0,0.0
1576104081574400950,20958,1576104081573759794,,0.0,0.0,0.0,0.0,0.0,0.0,0.0,0.0,0.0,0.0,0.0,0.0,0.0,0.001,-0.001,0.0,0.0,0.0,0.0,0.0,0.0,0.0,0.0,0.0,0.0,0.393,0.397,9.66,0.0,0.0,0.0,0.0,0.0,0.0,0.0,0.0,0.0
1576104081574729844,20959,1576104081574375629,,0.0,0.0,0.0,0.0,0.0,0.0,0.0,0.0,0.0,0.0,0.0,0.0,0.0,-0.0,-0.002,0.0,0.0,0.0,0.0,0.0,0.0,0.0,0.0,0.0,0.0,0.441,0.368,9.68,0.0,0.0,0.0,0.0,0.0,0.0,0.0,0.0,0.0
1576104081575523158,20960,1576104081574867010,,0.0,0.0,0.0,0.0,0.0,0.0,0.0,0.0,0.0,0.0,0.0,0.0,0.0,-0.0,-0.002,0.0,0.0,0.0,0.0,0.0,0.0,0.0,0.0,0.0,0.0,0.465,0.363,9.67,0.0,0.0,0.0,0.0,0.0,0.0,0.0,0.0,0.0
1576104081576079727,20961,1576104081575521707,,0.0,0.0,0.0,0.0,0.0,0.0,0.0,0.0,0.0,0.0,0.0,0.0,0.0,0.001,-0.001,0.0,0.0,0.0,0.0,0.0,0.0,0.0,0.0,0.0,0.0,0.486,0.356,9.7,0.0,0.0,0.0,0.0,0.0,0.0,0.0,0.0,0.0
1576104081576541430,20962,1576104081575923919,,0.0,0.0,0.0,0.0,0.0,0.0,0.0,0.0,0.0,0.0,0.0,0.0,0.0,0.003,-0.002,0.0,0.0,0.0,0.0,0.0,0.0,0.0,0.0,0.0,0.0,0.489,0.351,9.67,0.0,0.0,0.0,0.0,0.0,0.0,0.0,0.0,0.0
1576104081576856822,20963,1576104081576387882,,0.0,0.0,0.0,0.0,0.0,0.0,0.0,0.0,0.0,0.0,0.0,0.0,0.0,-0.0,-0.002,0.0,0.0,0.0,0.0,0.0,0.0,0.0,0.0,0.0,0.0,0.501,0.354,9.67,0.0,0.0,0.0,0.0,0.0,0.0,0.0,0.0,0.0
1576104081578575017,20964,1576104081578182220,,0.0,0.0,0.0,0.0,0.0,0.0,0.0,0.0,0.0,0.0,0.0,0.0,0.0,0.001,0.0,0.0,0.0,0.0,0.0,0.0,0.0,0.0,0.0,0.0,0.0,0.52,0.356,9.69,0.0,0.0,0.0,0.0,0.0,0.0,0.0,0.0,0.0
1576104081580700562,20965,1576104081580321311,,0.0,0.0,0.0,0.0,0.0,0.0,0.0,0.0,0.0,0.0,0.0,0.0,0.0,-0.002,0.0,0.0,0.0,0.0,0.0,0.0,0.0,0.0,0.0,0.0,0.0,0.548,0.356,9.67,0.0,0.0,0.0,0.0,0.0,0.0,0.0,0.0,0.0
1576104081584053610,20966,1576104081583689451,,0.0,0.0,0.0,0.0,0.0,0.0,0.0,0.0,0.0,0.0,0.0,0.0,0.0,-0.0,-0.001,0.0,0.0,0.0,0.0,0.0,0.0,0.0,0.0,0.0,0.0,0.512,0.354,9.66,0.0,0.0,0.0,0.0,0.0,0.0,0.0,0.0,0.0
1576104081589123667,20967,1576104081588480472,,0.0,0.0,0.0,0.0,0.0,0.0,0.0,0.0,0.0,0.0,0.0,0.0,0.0,-0.002,-0.001,0.0,0.0,0.0,0.0,0.0,0.0,0.0,0.0,0.0,0.0,0.544,0.339,9.69,0.0,0.0,0.0,0.0,0.0,0.0,0.0,0.0,0.0
1576104081591463857,20968,1576104081590766191,,0.0,0.0,0.0,0.0,0.0,0.0,0.0,0.0,0.0,0.0,0.0,0.0,0.0,0.001,0.0,0.0,0.0,0.0,0.0,0.0,0.0,0.0,0.0,0.0,0.0,0.529,0.335,9.67,0.0,0.0,0.0,0.0,0.0,0.0,0.0,0.0,0.0
1576104081593607682,20969,1576104081592969894,,0.0,0.0,0.0,0.0,0.0,0.0,0.0,0.0,0.0,0.0,0.0,0.0,0.0,0.001,0.001,-0.0,0.0,0.0,0.0,0.0,0.0,0.0,0.0,0.0,0.0,0.536,0.33,9.68,0.0,0.0,0.0,0.0,0.0,0.0,0.0,0.0,0.0
1576104081595844935,20970,1576104081595201969,,0.0,0.0,0.0,0.0,0.0,0.0,0.0,0.0,0.0,0.0,0.0,0.0,0.0,0.001,-0.001,-0.0,0.0,0.0,0.0,0.0,0.0,0.0,0.0,0.0,0.0,0.522,0.33,9.67,0.0,0.0,0.0,0.0,0.0,0.0,0.0,0.0,0.0
1576104081600425115,20971,1576104081599658489,,0.0,0.0,0.0,0.0,0.0,0.0,0.0,0.0,0.0,0.0,0.0,0.0,0.0,0.001,0.0,-0.0,0.0,0.0,0.0,0.0,0.0,0.0,0.0,0.0,0.0,0.529,0.347,9.67,0.0,0.0,0.0,0.0,0.0,0.0,0.0,0.0,0.0
1576104081600670410,20972,1576104081600082159,,0.0,0.0,0.0,0.0,0.0,0.0,0.0,0.0,0.0,0.0,0.0,0.0,0.0,0.001,0.001,-0.0,0.0,0.0,0.0,0.0,0.0,0.0,0.0,0.0,0.0,0.515,0.339,9.69,0.0,0.0,0.0,0.0,0.0,0.0,0.0,0.0,0.0
1576104081604058244,20973,1576104081603377580,,0.0,0.0,0.0,0.0,0.0,0.0,0.0,0.0,0.0,0.0,0.0,0.0,0.0,-0.0,0.0,-0.0,0.0,0.0,0.0,0.0,0.0,0.0,0.0,0.0,0.0,0.51,0.315,9.69,0.0,0.0,0.0,0.0,0.0,0.0,0.0,0.0,0.0
1576104081609043783,20974,1576104081608602046,,0.0,0.0,0.0,0.0,0.0,0.0,0.0,0.0,0.0,0.0,0.0,0.0,0.0,0.001,0.0,-0.0,0.0,0.0,0.0,0.0,0.0,0.0,0.0,0.0,0.0,0.501,0.351,9.68,0.0,0.0,0.0,0.0,0.0,0.0,0.0,0.0,0.0
1576104081611858678,20975,1576104081611137628,,0.0,0.0,0.0,0.0,0.0,0.0,0.0,0.0,0.0,0.0,0.0,0.0,0.0,-0.003,0.001,-0.0,0.0,0.0,0.0,0.0,0.0,0.0,0.0,0.0,0.0,0.496,0.356,9.69,0.0,0.0,0.0,0.0,0.0,0.0,0.0,0.0,0.0
1576104081615038701,20976,1576104081614326715,,0.0,0.0,0.0,0.0,0.0,0.0,0.0,0.0,0.0,0.0,0.0,0.0,0.0,0.001,0.001,-0.0,0.0,0.0,0.0,0.0,0.0,0.0,0.0,0.0,0.0,0.467,0.361,9.69,0.0,0.0,0.0,0.0,0.0,0.0,0.0,0.0,0.0
1576104081618406275,20977,1576104081617690086,,0.0,0.0,0.0,0.0,0.0,0.0,0.0,0.0,0.0,0.0,0.0,0.0,0.0,0.001,0.001,-0.0,0.0,0.0,0.0,0.0,0.0,0.0,0.0,0.0,0.0,0.443,0.368,9.68,0.0,0.0,0.0,0.0,0.0,0.0,0.0,0.0,0.0
1576104081622194612,20978,1576104081621084213,,0.0,0.0,0.0,0.0,0.0,0.0,0.0,0.0,0.0,0.0,0.0,0.0,0.0,-0.0,0.001,-0.0,0.0,0.0,0.0,0.0,0.0,0.0,0.0,0.0,0.0,0.431,0.368,9.69,0.0,0.0,0.0,0.0,0.0,0.0,0.0,0.0,0.0
1576104081622234285,20979,1576104081621593713,,0.0,0.0,0.0,0.0,0.0,0.0,0.0,0.0,0.0,0.0,0.0,0.0,0.0,0.002,-0.001,-0.0,0.0,0.0,0.0,0.0,0.0,0.0,0.0,0.0,0.0,0.443,0.344,9.66,0.0,0.0,0.0,0.0,0.0,0.0,0.0,0.0,0.0
1576104081625069596,20980,1576104081624351501,,0.0,0.0,0.0,0.0,0.0,0.0,0.0,0.0,0.0,0.0,0.0,0.0,0.0,-0.0,0.0,-0.0,0.0,0.0,0.0,0.0,0.0,0.0,0.0,0.0,0.0,0.448,0.385,9.68,0.0,0.0,0.0,0.0,0.0,0.0,0.0,0.0,0.0
1576104081628292221,20981,1576104081627594709,,0.0,0.0,0.0,0.0,0.0,0.0,0.0,0.0,0.0,0.0,0.0,0.0,0.0,-0.004,0.0,-0.0,0.0,0.0,0.0,0.0,0.0,0.0,0.0,0.0,0.0,0.431,0.356,9.69,0.0,0.0,0.0,0.0,0.0,0.0,0.0,0.0,0.0
1576104081633049235,20982,1576104081632195949,,0.0,0.0,0.0,0.0,0.0,0.0,0.0,0.0,0.0,0.0,0.0,0.0,0.0,-0.002,0.001,-0.0,0.0,0.0,0.0,0.0,0.0,0.0,0.0,0.0,0.0,0.419,0.39,9.69,0.0,0.0,0.0,0.0,0.0,0.0,0.0,0.0,0.0
1576104081635148603,20983,1576104081634349822,,0.0,0.0,0.0,0.0,0.0,0.0,0.0,0.0,0.0,0.0,0.0,0.0,0.0,-0.0,-0.002,-0.0,0.0,0.0,0.0,0.0,0.0,0.0,0.0,0.0,0.0,0.412,0.373,9.68,0.0,0.0,0.0,0.0,0.0,0.0,0.0,0.0,0.0
1576104081642639009,20984,1576104081641921520,,0.0,0.0,0.0,0.0,0.0,0.0,0.0,0.0,0.0,0.0,0.0,0.0,0.0,0.003,-0.001,0.0,0.0,0.0,0.0,0.0,0.0,0.0,0.0,0.0,0.0,0.407,0.392,9.7,0.0,0.0,0.0,0.0,0.0,0.0,0.0,0.0,0.0
1576104081643726203,20985,1576104081642937421,,0.0,0.0,0.0,0.0,0.0,0.0,0.0,0.0,0.0,0.0,0.0,0.0,0.0,0.001,-0.001,-0.0,0.0,0.0,0.0,0.0,0.0,0.0,0.0,0.0,0.0,0.395,0.375,9.7,0.0,0.0,0.0,0.0,0.0,0.0,0.0,0.0,0.0
1576104081669214510,20986,1576104081668193817,,0.0,0.0,0.0,0.0,0.0,0.0,0.0,0.0,0.0,0.0,0.0,0.0,0.0,0.001,0.001,0.0,0.0,0.0,0.0,0.0,0.0,0.0,0.0,0.0,0.0,0.388,0.392,9.7,0.0,0.0,0.0,0.0,0.0,0.0,0.0,0.0,0.0
1576104081670514701,20987,1576104081669780015,,0.0,0.0,0.0,0.0,0.0,0.0,0.0,0.0,0.0,0.0,0.0,0.0,0.0,-0.002,0.0,0.0,0.0,0.0,0.0,0.0,0.0,0.0,0.0,0.0,0.0,0.393,0.363,9.65,0.0,0.0,0.0,0.0,0.0,0.0,0.0,0.0,0.0
1576104081673289680,20988,1576104081672434091,,0.0,0.0,0.0,0.0,0.0,0.0,0.0,0.0,0.0,0.0,0.0,0.0,0.0,-0.002,0.0,0.0,0.0,0.0,0.0,0.0,0.0,0.0,0.0,0.0,0.0,0.39,0.37,9.68,0.0,0.0,0.0,0.0,0.0,0.0,0.0,0.0,0.0
1576104081673326571,20989,1576104081672805786,,0.0,0.0,0.0,0.0,0.0,0.0,0.0,0.0,0.0,0.0,0.0,0.0,0.0,0.001,0.0,0.0,0.0,0.0,0.0,0.0,0.0,0.0,0.0,0.0,0.0,0.39,0.359,9.69,0.0,0.0,0.0,0.0,0.0,0.0,0.0,0.0,0.0
1576104081674130680,20990,1576104081673646688,,0.0,0.0,0.0,0.0,0.0,0.0,0.0,0.0,0.0,0.0,0.0,0.0,0.0,-0.0,0.0,0.0,0.0,0.0,0.0,0.0,0.0,0.0,0.0,0.0,0.0,0.414,0.332,9.67,0.0,0.0,0.0,0.0,0.0,0.0,0.0,0.0,0.0
1576104081675133561,20991,1576104081674397230,,0.0,0.0,0.0,0.0,0.0,0.0,0.0,0.0,0.0,0.0,0.0,0.0,0.0,-0.002,-0.001,0.0,0.0,0.0,0.0,0.0,0.0,0.0,0.0,0.0,0.0,0.398,0.351,9.67,0.0,0.0,0.0,0.0,0.0,0.0,0.0,0.0,0.0
1576104081675386062,20992,1576104081674827337,,0.0,0.0,0.0,0.0,0.0,0.0,0.0,0.0,0.0,0.0,0.0,0.0,0.0,-0.002,0.0,0.0,0.0,0.0,0.0,0.0,0.0,0.0,0.0,0.0,0.0,0.433,0.325,9.69,0.0,0.0,0.0,0.0,0.0,0.0,0.0,0.0,0.0
1576104081675855973,20993,1576104081675523757,,0.0,0.0,0.0,0.0,0.0,0.0,0.0,0.0,0.0,0.0,0.0,0.0,0.0,-0.003,0.001,0.0,0.0,0.0,0.0,0.0,0.0,0.0,0.0,0.0,0.0,0.417,0.323,9.68,0.0,0.0,0.0,0.0,0.0,0.0,0.0,0.0,0.0
1576104081681619562,20994,1576104081680963754,,0.0,0.0,0.0,0.0,0.0,0.0,0.0,0.0,0.0,0.0,0.0,0.0,0.0,0.001,0.0,0.0,0.0,0.0,0.0,0.0,0.0,0.0,0.0,0.0,0.0,0.453,0.313,9.7,0.0,0.0,0.0,0.0,0.0,0.0,0.0,0.0,0.0
1576104081683031845,20995,1576104081682371377,,0.0,0.0,0.0,0.0,0.0,0.0,0.0,0.0,0.0,0.0,0.0,0.0,0.0,0.001,0.0,0.0,0.0,0.0,0.0,0.0,0.0,0.0,0.0,0.0,0.0,0.419,0.287,9.7,0.0,0.0,0.0,0.0,0.0,0.0,0.0,0.0,0.0
1576104081684514243,20996,1576104081683863639,,0.0,0.0,0.0,0.0,0.0,0.0,0.0,0.0,0.0,0.0,0.0,0.0,0.0,0.001,0.0,0.0,0.0,0.0,0.0,0.0,0.0,0.0,0.0,0.0,0.0,0.436,0.311,9.7,0.0,0.0,0.0,0.0,0.0,0.0,0.0,0.0,0.0
1576104081689095161,20997,1576104081688366651,,0.0,0.0,0.0,0.0,0.0,0.0,0.0,0.0,0.0,0.0,0.0,0.0,0.0,0.002,0.0,0.0,0.0,0.0,0.0,0.0,0.0,0.0,0.0,0.0,0.0,0.448,0.294,9.68,0.0,0.0,0.0,0.0,0.0,0.0,0.0,0.0,0.0
1576104081691307572,20998,1576104081690631628,,0.0,0.0,0.0,0.0,0.0,0.0,0.0,0.0,0.0,0.0,0.0,0.0,0.0,0.001,0.0,0.0,0.0,0.0,0.0,0.0,0.0,0.0,0.0,0.0,0.0,0.45,0.296,9.72,0.0,0.0,0.0,0.0,0.0,0.0,0.0,0.0,0.0
1576104081694531780,20999,1576104081693884372,,0.0,0.0,0.0,0.0,0.0,0.0,0.0,0.0,0.0,0.0,0.0,0.0,0.0,0.003,-0.002,-0.0,0.0,0.0,0.0,0.0,0.0,0.0,0.0,0.0,0.0,0.45,0.32,9.67,0.0,0.0,0.0,0.0,0.0,0.0,0.0,0.0,0.0
1576104081698861971,21000,1576104081698290824,,0.0,0.0,0.0,0.0,0.0,0.0,0.0,0.0,0.0,0.0,0.0,0.0,0.0,-0.0,0.001,-0.0,0.0,0.0,0.0,0.0,0.0,0.0,0.0,0.0,0.0,0.438,0.313,9.68,0.0,0.0,0.0,0.0,0.0,0.0,0.0,0.0,0.0
1576104081701118824,21001,1576104081700498580,,0.0,0.0,0.0,0.0,0.0,0.0,0.0,0.0,0.0,0.0,0.0,0.0,0.0,-0.0,0.003,-0.0,0.0,0.0,0.0,0.0,0.0,0.0,0.0,0.0,0.0,0.412,0.33,9.69,0.0,0.0,0.0,0.0,0.0,0.0,0.0,0.0,0.0
1576104081704519012,21002,1576104081703896999,,0.0,0.0,0.0,0.0,0.0,0.0,0.0,0.0,0.0,0.0,0.0,0.0,0.0,0.005,0.0,-0.0,0.0,0.0,0.0,0.0,0.0,0.0,0.0,0.0,0.0,0.419,0.33,9.68,0.0,0.0,0.0,0.0,0.0,0.0,0.0,0.0,0.0
1576104081706631105,21003,1576104081705974578,,0.0,0.0,0.0,0.0,0.0,0.0,0.0,0.0,0.0,0.0,0.0,0.0,0.0,0.005,0.0,-0.0,0.0,0.0,0.0,0.0,0.0,0.0,0.0,0.0,0.0,0.438,0.337,9.67,0.0,0.0,0.0,0.0,0.0,0.0,0.0,0.0,0.0
1576104081710174884,21004,1576104081709525585,,0.0,0.0,0.0,0.0,0.0,0.0,0.0,0.0,0.0,0.0,0.0,0.0,0.0,0.001,0.0,-0.0,0.0,0.0,0.0,0.0,0.0,0.0,0.0,0.0,0.0,0.424,0.347,9.68,0.0,0.0,0.0,0.0,0.0,0.0,0.0,0.0,0.0
1576104081711136660,21005,1576104081710449695,,0.0,0.0,0.0,0.0,0.0,0.0,0.0,0.0,0.0,0.0,0.0,0.0,0.0,-0.002,0.0,-0.0,0.0,0.0,0.0,0.0,0.0,0.0,0.0,0.0,0.0,0.398,0.366,9.7,0.0,0.0,0.0,0.0,0.0,0.0,0.0,0.0,0.0
1576104081716540000,21006,1576104081715893745,,0.0,0.0,0.0,0.0,0.0,0.0,0.0,0.0,0.0,0.0,0.0,0.0,0.0,0.001,0.0,-0.0,0.0,0.0,0.0,0.0,0.0,0.0,0.0,0.0,0.0,0.393,0.368,9.71,0.0,0.0,0.0,0.0,0.0,0.0,0.0,0.0,0.0
1576104081720249698,21007,1576104081719430208,,0.0,0.0,0.0,0.0,0.0,0.0,0.0,0.0,0.0,0.0,0.0,0.0,0.0,0.002,0.001,-0.0,0.0,0.0,0.0,0.0,0.0,0.0,0.0,0.0,0.0,0.378,0.375,9.71,0.0,0.0,0.0,0.0,0.0,0.0,0.0,0.0,0.0
1576104081723519589,21008,1576104081722881317,,0.0,0.0,0.0,0.0,0.0,0.0,0.0,0.0,0.0,0.0,0.0,0.0,0.0,-0.0,0.0,-0.0,0.0,0.0,0.0,0.0,0.0,0.0,0.0,0.0,0.0,0.378,0.351,9.67,0.0,0.0,0.0,0.0,0.0,0.0,0.0,0.0,0.0
1576104081727308405,21009,1576104081726762056,,0.0,0.0,0.0,0.0,0.0,0.0,0.0,0.0,0.0,0.0,0.0,0.0,0.0,-0.002,0.001,-0.0,0.0,0.0,0.0,0.0,0.0,0.0,0.0,0.0,0.0,0.376,0.363,9.69,0.0,0.0,0.0,0.0,0.0,0.0,0.0,0.0,0.0
1576104081730039861,21010,1576104081729381561,,0.0,0.0,0.0,0.0,0.0,0.0,0.0,0.0,0.0,0.0,0.0,0.0,0.0,-0.003,0.001,-0.0,0.0,0.0,0.0,0.0,0.0,0.0,0.0,0.0,0.0,0.362,0.361,9.69,0.0,0.0,0.0,0.0,0.0,0.0,0.0,0.0,0.0
1576104081731349804,21011,1576104081730649232,,0.0,0.0,0.0,0.0,0.0,0.0,0.0,0.0,0.0,0.0,0.0,0.0,0.0,-0.002,0.0,-0.0,0.0,0.0,0.0,0.0,0.0,0.0,0.0,0.0,0.0,0.347,0.366,9.67,0.0,0.0,0.0,0.0,0.0,0.0,0.0,0.0,0.0
1576104081736151897,21012,1576104081735302209,,0.0,0.0,0.0,0.0,0.0,0.0,0.0,0.0,0.0,0.0,0.0,0.0,0.0,-0.0,0.0,-0.0,0.0,0.0,0.0,0.0,0.0,0.0,0.0,0.0,0.0,0.345,0.399,9.69,0.0,0.0,0.0,0.0,0.0,0.0,0.0,0.0,0.0
1576104081738403661,21013,1576104081737565994,,0.0,0.0,0.0,0.0,0.0,0.0,0.0,0.0,0.0,0.0,0.0,0.0,0.0,0.001,-0.002,-0.0,0.0,0.0,0.0,0.0,0.0,0.0,0.0,0.0,0.0,0.343,0.378,9.68,0.0,0.0,0.0,0.0,0.0,0.0,0.0,0.0,0.0
1576104081743908442,21014,1576104081742814779,,0.0,0.0,0.0,0.0,0.0,0.0,0.0,0.0,0.0,0.0,0.0,0.0,0.0,0.002,-0.001,-0.0,0.0,0.0,0.0,0.0,0.0,0.0,0.0,0.0,0.0,0.359,0.37,9.66,0.0,0.0,0.0,0.0,0.0,0.0,0.0,0.0,0.0
1576104081743961231,21015,1576104081743302345,,0.0,0.0,0.0,0.0,0.0,0.0,0.0,0.0,0.0,0.0,0.0,0.0,0.0,-0.003,0.0,-0.0,0.0,0.0,0.0,0.0,0.0,0.0,0.0,0.0,0.0,0.362,0.366,9.68,0.0,0.0,0.0,0.0,0.0,0.0,0.0,0.0,0.0
1576104081768845976,21016,1576104081768126964,,0.0,0.0,0.0,0.0,0.0,0.0,0.0,0.0,0.0,0.0,0.0,0.0,0.0,0.001,-0.002,0.0,0.0,0.0,0.0,0.0,0.0,0.0,0.0,0.0,0.0,0.383,0.382,9.69,0.0,0.0,0.0,0.0,0.0,0.0,0.0,0.0,0.0
1576104081770682352,21017,1576104081769799709,,0.0,0.0,0.0,0.0,0.0,0.0,0.0,0.0,0.0,0.0,0.0,0.0,0.0,-0.003,0.0,0.0,0.0,0.0,0.0,0.0,0.0,0.0,0.0,0.0,0.0,0.395,0.366,9.68,0.0,0.0,0.0,0.0,0.0,0.0,0.0,0.0,0.0
1576104081770711220,21018,1576104081770123481,,0.0,0.0,0.0,0.0,0.0,0.0,0.0,0.0,0.0,0.0,0.0,0.0,0.0,-0.0,-0.002,0.0,0.0,0.0,0.0,0.0,0.0,0.0,0.0,0.0,0.0,0.398,0.385,9.69,0.0,0.0,0.0,0.0,0.0,0.0,0.0,0.0,0.0
1576104081772514045,21019,1576104081771743297,,0.0,0.0,0.0,0.0,0.0,0.0,0.0,0.0,0.0,0.0,0.0,0.0,0.0,0.001,-0.001,0.0,0.0,0.0,0.0,0.0,0.0,0.0,0.0,0.0,0.0,0.4,0.38,9.68,0.0,0.0,0.0,0.0,0.0,0.0,0.0,0.0,0.0
1576104081772681922,21020,1576104081772140979,,0.0,0.0,0.0,0.0,0.0,0.0,0.0,0.0,0.0,0.0,0.0,0.0,0.0,-0.0,-0.001,0.0,0.0,0.0,0.0,0.0,0.0,0.0,0.0,0.0,0.0,0.402,0.38,9.68,0.0,0.0,0.0,0.0,0.0,0.0,0.0,0.0,0.0
1576104081773191413,21021,1576104081772828817,,0.0,0.0,0.0,0.0,0.0,0.0,0.0,0.0,0.0,0.0,0.0,0.0,0.0,0.001,-0.001,0.0,0.0,0.0,0.0,0.0,0.0,0.0,0.0,0.0,0.0,0.443,0.39,9.69,0.0,0.0,0.0,0.0,0.0,0.0,0.0,0.0,0.0
1576104081773652812,21022,1576104081773279428,,0.0,0.0,0.0,0.0,0.0,0.0,0.0,0.0,0.0,0.0,0.0,0.0,0.0,0.001,0.0,0.0,0.0,0.0,0.0,0.0,0.0,0.0,0.0,0.0,0.0,0.457,0.366,9.68,0.0,0.0,0.0,0.0,0.0,0.0,0.0,0.0,0.0
1576104081774367728,21023,1576104081773673772,,0.0,0.0,0.0,0.0,0.0,0.0,0.0,0.0,0.0,0.0,0.0,0.0,0.0,0.002,-0.001,0.0,0.0,0.0,0.0,0.0,0.0,0.0,0.0,0.0,0.0,0.484,0.37,9.69,0.0,0.0,0.0,0.0,0.0,0.0,0.0,0.0,0.0
1576104081774553297,21024,1576104081774052858,,0.0,0.0,0.0,0.0,0.0,0.0,0.0,0.0,0.0,0.0,0.0,0.0,0.0,0.001,-0.003,0.0,0.0,0.0,0.0,0.0,0.0,0.0,0.0,0.0,0.0,0.489,0.385,9.68,0.0,0.0,0.0,0.0,0.0,0.0,0.0,0.0,0.0
1576104081776412551,21025,1576104081776023626,,0.0,0.0,0.0,0.0,0.0,0.0,0.0,0.0,0.0,0.0,0.0,0.0,0.0,-0.0,-0.001,0.0,0.0,0.0,0.0,0.0,0.0,0.0,0.0,0.0,0.0,0.472,0.37,9.67,0.0,0.0,0.0,0.0,0.0,0.0,0.0,0.0,0.0
1576104081779830456,21026,1576104081779515981,,0.0,0.0,0.0,0.0,0.0,0.0,0.0,0.0,0.0,0.0,0.0,0.0,0.0,0.001,0.0,0.0,0.0,0.0,0.0,0.0,0.0,0.0,0.0,0.0,0.0,0.52,0.332,9.67,0.0,0.0,0.0,0.0,0.0,0.0,0.0,0.0,0.0
1576104081786712483,21027,1576104081786075592,,0.0,0.0,0.0,0.0,0.0,0.0,0.0,0.0,0.0,0.0,0.0,0.0,0.0,-0.0,0.0,0.0,0.0,0.0,0.0,0.0,0.0,0.0,0.0,0.0,0.0,0.534,0.33,9.71,0.0,0.0,0.0,0.0,0.0,0.0,0.0,0.0,0.0
1576104081790108126,21028,1576104081789408922,,0.0,0.0,0.0,0.0,0.0,0.0,0.0,0.0,0.0,0.0,0.0,0.0,0.0,-0.002,0.0,0.0,0.0,0.0,0.0,0.0,0.0,0.0,0.0,0.0,0.0,0.512,0.347,9.71,0.0,0.0,0.0,0.0,0.0,0.0,0.0,0.0,0.0
1576104081794648296,21029,1576104081794046640,,0.0,0.0,0.0,0.0,0.0,0.0,0.0,0.0,0.0,0.0,0.0,0.0,0.0,0.001,0.0,0.0,0.0,0.0,0.0,0.0,0.0,0.0,0.0,0.0,0.0,0.501,0.33,9.67,0.0,0.0,0.0,0.0,0.0,0.0,0.0,0.0,0.0
1576104081797889239,21030,1576104081797207832,,0.0,0.0,0.0,0.0,0.0,0.0,0.0,0.0,0.0,0.0,0.0,0.0,0.0,-0.002,0.0,0.0,0.0,0.0,0.0,0.0,0.0,0.0,0.0,0.0,0.0,0.536,0.335,9.67,0.0,0.0,0.0,0.0,0.0,0.0,0.0,0.0,0.0
1576104081802559997,21031,1576104081801892757,,0.0,0.0,0.0,0.0,0.0,0.0,0.0,0.0,0.0,0.0,0.0,0.0,0.0,-0.0,0.0,0.0,0.0,0.0,0.0,0.0,0.0,0.0,0.0,0.0,0.0,0.517,0.323,9.65,0.0,0.0,0.0,0.0,0.0,0.0,0.0,0.0,0.0
1576104081804671369,21032,1576104081803982257,,0.0,0.0,0.0,0.0,0.0,0.0,0.0,0.0,0.0,0.0,0.0,0.0,0.0,0.003,0.0,0.0,0.0,0.0,0.0,0.0,0.0,0.0,0.0,0.0,0.0,0.503,0.325,9.67,0.0,0.0,0.0,0.0,0.0,0.0,0.0,0.0,0.0
1576104081809201670,21033,1576104081808540582,,0.0,0.0,0.0,0.0,0.0,0.0,0.0,0.0,0.0,0.0,0.0,0.0,0.0,0.001,-0.001,-0.0,0.0,0.0,0.0,0.0,0.0,0.0,0.0,0.0,0.0,0.503,0.325,9.68,0.0,0.0,0.0,0.0,0.0,0.0,0.0,0.0,0.0
1576104081812930815,21034,1576104081812288761,,0.0,0.0,0.0,0.0,0.0,0.0,0.0,0.0,0.0,0.0,0.0,0.0,0.0,0.002,-0.001,-0.0,0.0,0.0,0.0,0.0,0.0,0.0,0.0,0.0,0.0,0.496,0.327,9.7,0.0,0.0,0.0,0.0,0.0,0.0,0.0,0.0,0.0
1576104081815751533,21035,1576104081815031766,,0.0,0.0,0.0,0.0,0.0,0.0,0.0,0.0,0.0,0.0,0.0,0.0,0.0,-0.0,0.003,0.0,0.0,0.0,0.0,0.0,0.0,0.0,0.0,0.0,0.0,0.465,0.356,9.68,0.0,0.0,0.0,0.0,0.0,0.0,0.0,0.0,0.0
1576104081819792694,21036,1576104081819135189,,0.0,0.0,0.0,0.0,0.0,0.0,0.0,0.0,0.0,0.0,0.0,0.0,0.0,-0.002,0.0,-0.0,0.0,0.0,0.0,0.0,0.0,0.0,0.0,0.0,0.0,0.46,0.344,9.7,0.0,0.0,0.0,0.0,0.0,0.0,0.0,0.0,0.0
1576104081823443540,21037,1576104081822698831,,0.0,0.0,0.0,0.0,0.0,0.0,0.0,0.0,0.0,0.0,0.0,0.0,0.0,-0.0,0.001,-0.0,0.0,0.0,0.0,0.0,0.0,0.0,0.0,0.0,0.0,0.429,0.344,9.67,0.0,0.0,0.0,0.0,0.0,0.0,0.0,0.0,0.0
1576104081824365059,21038,1576104081823726415,,0.0,0.0,0.0,0.0,0.0,0.0,0.0,0.0,0.0,0.0,0.0,0.0,0.0,-0.0,0.001,-0.0,0.0,0.0,0.0,0.0,0.0,0.0,0.0,0.0,0.0,0.433,0.349,9.69,0.0,0.0,0.0,0.0,0.0,0.0,0.0,0.0,0.0
1576104081830430859,21039,1576104081829863786,,0.0,0.0,0.0,0.0,0.0,0.0,0.0,0.0,0.0,0.0,0.0,0.0,0.0,-0.002,0.0,-0.0,0.0,0.0,0.0,0.0,0.0,0.0,0.0,0.0,0.0,0.422,0.37,9.66,0.0,0.0,0.0,0.0,0.0,0.0,0.0,0.0,0.0
1576104081831640001,21040,1576104081830873012,,0.0,0.0,0.0,0.0,0.0,0.0,0.0,0.0,0.0,0.0,0.0,0.0,0.0,0.001,0.0,0.0,0.0,0.0,0.0,0.0,0.0,0.0,0.0,0.0,0.0,0.422,0.347,9.66,0.0,0.0,0.0,0.0,0.0,0.0,0.0,0.0,0.0
1576104081834004827,21041,1576104081833345174,,0.0,0.0,0.0,0.0,0.0,0.0,0.0,0.0,0.0,0.0,0.0,0.0,0.0,0.003,0.001,0.0,0.0,0.0,0.0,0.0,0.0,0.0,0.0,0.0,0.0,0.412,0.366,9.66,0.0,0.0,0.0,0.0,0.0,0.0,0.0,0.0,0.0
1576104081836988954,21042,1576104081836270093,,0.0,0.0,0.0,0.0,0.0,0.0,0.0,0.0,0.0,0.0,0.0,0.0,0.0,-0.0,0.0,-0.0,0.0,0.0,0.0,0.0,0.0,0.0,0.0,0.0,0.0,0.422,0.375,9.67,0.0,0.0,0.0,0.0,0.0,0.0,0.0,0.0,0.0
1576104081842348767,21043,1576104081841661214,,0.0,0.0,0.0,0.0,0.0,0.0,0.0,0.0,0.0,0.0,0.0,0.0,0.0,0.002,0.0,0.0,0.0,0.0,0.0,0.0,0.0,0.0,0.0,0.0,0.0,0.402,0.37,9.68,0.0,0.0,0.0,0.0,0.0,0.0,0.0,0.0,0.0
1576104081845608664,21044,1576104081844934225,,0.0,0.0,0.0,0.0,0.0,0.0,0.0,0.0,0.0,0.0,0.0,0.0,0.0,0.001,0.0,0.0,0.0,0.0,0.0,0.0,0.0,0.0,0.0,0.0,0.0,0.388,0.363,9.68,0.0,0.0,0.0,0.0,0.0,0.0,0.0,0.0,0.0
1576104081865958513,21045,1576104081865060091,,0.0,0.0,0.0,0.0,0.0,0.0,0.0,0.0,0.0,0.0,0.0,0.0,0.0,-0.0,0.0,0.0,0.0,0.0,0.0,0.0,0.0,0.0,0.0,0.0,0.0,0.386,0.366,9.68,0.0,0.0,0.0,0.0,0.0,0.0,0.0,0.0,0.0
1576104081869279808,21046,1576104081868220329,,0.0,0.0,0.0,0.0,0.0,0.0,0.0,0.0,0.0,0.0,0.0,0.0,0.0,0.001,0.0,0.0,0.0,0.0,0.0,0.0,0.0,0.0,0.0,0.0,0.0,0.366,0.37,9.7,0.0,0.0,0.0,0.0,0.0,0.0,0.0,0.0,0.0
1576104081869324524,21047,1576104081868609189,,0.0,0.0,0.0,0.0,0.0,0.0,0.0,0.0,0.0,0.0,0.0,0.0,0.0,-0.002,-0.001,-0.0,0.0,0.0,0.0,0.0,0.0,0.0,0.0,0.0,0.0,0.369,0.359,9.67,0.0,0.0,0.0,0.0,0.0,0.0,0.0,0.0,0.0
1576104081869495331,21048,1576104081868895292,,0.0,0.0,0.0,0.0,0.0,0.0,0.0,0.0,0.0,0.0,0.0,0.0,0.0,0.002,-0.001,0.0,0.0,0.0,0.0,0.0,0.0,0.0,0.0,0.0,0.0,0.371,0.361,9.7,0.0,0.0,0.0,0.0,0.0,0.0,0.0,0.0,0.0
1576104081870138867,21049,1576104081869613409,,0.0,0.0,0.0,0.0,0.0,0.0,0.0,0.0,0.0,0.0,0.0,0.0,0.0,-0.0,0.0,0.0,0.0,0.0,0.0,0.0,0.0,0.0,0.0,0.0,0.0,0.357,0.339,9.67,0.0,0.0,0.0,0.0,0.0,0.0,0.0,0.0,0.0
1576104081870756982,21050,1576104081870204687,,0.0,0.0,0.0,0.0,0.0,0.0,0.0,0.0,0.0,0.0,0.0,0.0,0.0,-0.003,0.003,0.0,0.0,0.0,0.0,0.0,0.0,0.0,0.0,0.0,0.0,0.383,0.349,9.67,0.0,0.0,0.0,0.0,0.0,0.0,0.0,0.0,0.0
1576104081873050393,21051,1576104081872360944,,0.0,0.0,0.0,0.0,0.0,0.0,0.0,0.0,0.0,0.0,0.0,0.0,0.0,0.003,0.001,0.0,0.0,0.0,0.0,0.0,0.0,0.0,0.0,0.0,0.0,0.359,0.359,9.69,0.0,0.0,0.0,0.0,0.0,0.0,0.0,0.0,0.0
1576104081873834761,21052,1576104081872683763,,0.0,0.0,0.0,0.0,0.0,0.0,0.0,0.0,0.0,0.0,0.0,0.0,0.0,0.002,-0.001,0.0,0.0,0.0,0.0,0.0,0.0,0.0,0.0,0.0,0.0,0.359,0.361,9.66,0.0,0.0,0.0,0.0,0.0,0.0,0.0,0.0,0.0
1576104081873870895,21053,1576104081873263120,,0.0,0.0,0.0,0.0,0.0,0.0,0.0,0.0,0.0,0.0,0.0,0.0,0.0,-0.002,0.0,0.0,0.0,0.0,0.0,0.0,0.0,0.0,0.0,0.0,0.0,0.376,0.359,9.72,0.0,0.0,0.0,0.0,0.0,0.0,0.0,0.0,0.0
1576104081874706456,21054,1576104081873908281,,0.0,0.0,0.0,0.0,0.0,0.0,0.0,0.0,0.0,0.0,0.0,0.0,0.0,-0.002,0.0,0.0,0.0,0.0,0.0,0.0,0.0,0.0,0.0,0.0,0.0,0.374,0.351,9.7,0.0,0.0,0.0,0.0,0.0,0.0,0.0,0.0,0.0
1576104081874767566,21055,1576104081874296426,,0.0,0.0,0.0,0.0,0.0,0.0,0.0,0.0,0.0,0.0,0.0,0.0,0.0,0.001,-0.001,0.0,0.0,0.0,0.0,0.0,0.0,0.0,0.0,0.0,0.0,0.357,0.33,9.69,0.0,0.0,0.0,0.0,0.0,0.0,0.0,0.0,0.0
1576104081875295454,21056,1576104081874878644,,0.0,0.0,0.0,0.0,0.0,0.0,0.0,0.0,0.0,0.0,0.0,0.0,0.0,-0.0,-0.001,0.0,0.0,0.0,0.0,0.0,0.0,0.0,0.0,0.0,0.0,0.371,0.361,9.67,0.0,0.0,0.0,0.0,0.0,0.0,0.0,0.0,0.0
1576104081877452469,21057,1576104081877106666,,0.0,0.0,0.0,0.0,0.0,0.0,0.0,0.0,0.0,0.0,0.0,0.0,0.0,0.002,-0.001,0.0,0.0,0.0,0.0,0.0,0.0,0.0,0.0,0.0,0.0,0.378,0.356,9.7,0.0,0.0,0.0,0.0,0.0,0.0,0.0,0.0,0.0
1576104081883456952,21058,1576104081882873535,,0.0,0.0,0.0,0.0,0.0,0.0,0.0,0.0,0.0,0.0,0.0,0.0,0.0,-0.003,0.0,0.0,0.0,0.0,0.0,0.0,0.0,0.0,0.0,0.0,0.0,0.366,0.359,9.68,0.0,0.0,0.0,0.0,0.0,0.0,0.0,0.0,0.0
1576104081884897469,21059,1576104081884308576,,0.0,0.0,0.0,0.0,0.0,0.0,0.0,0.0,0.0,0.0,0.0,0.0,0.0,-0.0,-0.001,0.0,0.0,0.0,0.0,0.0,0.0,0.0,0.0,0.0,0.0,0.378,0.359,9.68,0.0,0.0,0.0,0.0,0.0,0.0,0.0,0.0,0.0
1576104081886641881,21060,1576104081886036396,,0.0,0.0,0.0,0.0,0.0,0.0,0.0,0.0,0.0,0.0,0.0,0.0,0.0,-0.003,0.0,0.0,0.0,0.0,0.0,0.0,0.0,0.0,0.0,0.0,0.0,0.462,0.351,9.78,0.0,0.0,0.0,0.0,0.0,0.0,0.0,0.0,0.0
1576104081890747994,21061,1576104081889393091,,0.0,0.0,0.0,0.0,0.0,0.0,0.0,0.0,0.0,0.0,0.0,0.0,0.0,-0.003,-0.003,0.0,0.0,0.0,0.0,0.0,0.0,0.0,0.0,0.0,0.0,0.395,0.359,9.66,0.0,0.0,0.0,0.0,0.0,0.0,0.0,0.0,0.0
1576104081890786249,21062,1576104081890010833,,0.0,0.0,0.0,0.0,0.0,0.0,0.0,0.0,0.0,0.0,0.0,0.0,0.0,-0.004,0.003,-0.0,0.0,0.0,0.0,0.0,0.0,0.0,0.0,0.0,0.0,0.374,0.356,9.54,0.0,0.0,0.0,0.0,0.0,0.0,0.0,0.0,0.0
1576104081897734695,21063,1576104081897068023,,0.0,0.0,0.0,0.0,0.0,0.0,0.0,0.0,0.0,0.0,0.0,0.0,0.0,-0.0,0.005,0.0,0.0,0.0,0.0,0.0,0.0,0.0,0.0,0.0,0.0,0.364,0.335,9.65,0.0,0.0,0.0,0.0,0.0,0.0,0.0,0.0,0.0
1576104081900181148,21064,1576104081899553060,,0.0,0.0,0.0,0.0,0.0,0.0,0.0,0.0,0.0,0.0,0.0,0.0,0.0,0.001,-0.003,0.0,0.0,0.0,0.0,0.0,0.0,0.0,0.0,0.0,0.0,0.405,0.366,9.76,0.0,0.0,0.0,0.0,0.0,0.0,0.0,0.0,0.0
1576104081901392738,21065,1576104081900615692,,0.0,0.0,0.0,0.0,0.0,0.0,0.0,0.0,0.0,0.0,0.0,0.0,0.0,0.001,-0.002,0.0,0.0,0.0,0.0,0.0,0.0,0.0,0.0,0.0,0.0,0.498,0.363,9.71,0.0,0.0,0.0,0.0,0.0,0.0,0.0,0.0,0.0
1576104081905953496,21066,1576104081905059337,,0.0,0.0,0.0,0.0,0.0,0.0,0.0,0.0,0.0,0.0,0.0,0.0,0.0,-0.0,0.005,-0.0,0.0,0.0,0.0,0.0,0.0,0.0,0.0,0.0,0.0,0.436,0.339,9.7,0.0,0.0,0.0,0.0,0.0,0.0,0.0,0.0,0.0
1576104081905982205,21067,1576104081905450820,,0.0,0.0,0.0,0.0,0.0,0.0,0.0,0.0,0.0,0.0,0.0,0.0,0.0,0.002,-0.002,-0.0,0.0,0.0,0.0,0.0,0.0,0.0,0.0,0.0,0.0,0.41,0.373,9.73,0.0,0.0,0.0,0.0,0.0,0.0,0.0,0.0,0.0
1576104081911781060,21068,1576104081911265134,,0.0,0.0,0.0,0.0,0.0,0.0,0.0,0.0,0.0,0.0,0.0,0.0,0.0,-0.0,0.0,-0.0,0.0,0.0,0.0,0.0,0.0,0.0,0.0,0.0,0.0,0.477,0.359,9.73,0.0,0.0,0.0,0.0,0.0,0.0,0.0,0.0,0.0
1576104081915025971,21069,1576104081914461612,,0.0,0.0,0.0,0.0,0.0,0.0,0.0,0.0,0.0,0.0,0.0,0.0,0.0,-0.003,0.001,-0.0,0.0,0.0,0.0,0.0,0.0,0.0,0.0,0.0,0.0,0.414,0.366,9.62,0.0,0.0,0.0,0.0,0.0,0.0,0.0,0.0,0.0
1576104081919657756,21070,1576104081919122695,,0.0,0.0,0.0,0.0,0.0,0.0,0.0,0.0,0.0,0.0,0.0,0.0,0.0,-0.003,0.001,-0.0,0.0,0.0,0.0,0.0,0.0,0.0,0.0,0.0,0.0,0.402,0.397,9.67,0.0,0.0,0.0,0.0,0.0,0.0,0.0,0.0,0.0
1576104081920920862,21071,1576104081920330524,,0.0,0.0,0.0,0.0,0.0,0.0,0.0,0.0,0.0,0.0,0.0,0.0,0.0,-0.0,0.0,-0.0,0.0,0.0,0.0,0.0,0.0,0.0,0.0,0.0,0.0,0.431,0.359,9.65,0.0,0.0,0.0,0.0,0.0,0.0,0.0,0.0,0.0
1576104081923807763,21072,1576104081923228502,,0.0,0.0,0.0,0.0,0.0,0.0,0.0,0.0,0.0,0.0,0.0,0.0,0.0,-0.002,0.001,-0.0,0.0,0.0,0.0,0.0,0.0,0.0,0.0,0.0,0.0,0.455,0.337,9.69,0.0,0.0,0.0,0.0,0.0,0.0,0.0,0.0,0.0
1576104081924989684,21073,1576104081924429416,,0.0,0.0,0.0,0.0,0.0,0.0,0.0,0.0,0.0,0.0,0.0,0.0,0.0,0.001,-0.001,-0.0,0.0,0.0,0.0,0.0,0.0,0.0,0.0,0.0,0.0,0.472,0.342,9.68,0.0,0.0,0.0,0.0,0.0,0.0,0.0,0.0,0.0
1576104081931360441,21074,1576104081930676698,,0.0,0.0,0.0,0.0,0.0,0.0,0.0,0.0,0.0,0.0,0.0,0.0,0.0,-0.0,0.001,-0.0,0.0,0.0,0.0,0.0,0.0,0.0,0.0,0.0,0.0,0.45,0.387,9.68,0.0,0.0,0.0,0.0,0.0,0.0,0.0,0.0,0.0
1576104081934862575,21075,1576104081934148550,,0.0,0.0,0.0,0.0,0.0,0.0,0.0,0.0,0.0,0.0,0.0,0.0,0.0,-0.0,0.0,-0.0,0.0,0.0,0.0,0.0,0.0,0.0,0.0,0.0,0.0,0.398,0.399,9.7,0.0,0.0,0.0,0.0,0.0,0.0,0.0,0.0,0.0
1576104081938374601,21076,1576104081937726497,,0.0,0.0,0.0,0.0,0.0,0.0,0.0,0.0,0.0,0.0,0.0,0.0,0.0,-0.002,0.001,-0.0,0.0,0.0,0.0,0.0,0.0,0.0,0.0,0.0,0.0,0.429,0.394,9.7,0.0,0.0,0.0,0.0,0.0,0.0,0.0,0.0,0.0
1576104081942088686,21077,1576104081941447734,,0.0,0.0,0.0,0.0,0.0,0.0,0.0,0.0,0.0,0.0,0.0,0.0,0.0,-0.004,-0.001,-0.0,0.0,0.0,0.0,0.0,0.0,0.0,0.0,0.0,0.0,0.45,0.361,9.67,0.0,0.0,0.0,0.0,0.0,0.0,0.0,0.0,0.0
1576104081966694176,21078,1576104081965425252,,0.0,0.0,0.0,0.0,0.0,0.0,0.0,0.0,0.0,0.0,0.0,0.0,0.0,0.001,-0.002,-0.0,0.0,0.0,0.0,0.0,0.0,0.0,0.0,0.0,0.0,0.45,0.385,9.64,0.0,0.0,0.0,0.0,0.0,0.0,0.0,0.0,0.0
1576104081966737369,21079,1576104081966043710,,0.0,0.0,0.0,0.0,0.0,0.0,0.0,0.0,0.0,0.0,0.0,0.0,0.0,-0.0,0.0,0.0,0.0,0.0,0.0,0.0,0.0,0.0,0.0,0.0,0.0,0.438,0.378,9.65,0.0,0.0,0.0,0.0,0.0,0.0,0.0,0.0,0.0
1576104081968352253,21080,1576104081967713356,,0.0,0.0,0.0,0.0,0.0,0.0,0.0,0.0,0.0,0.0,0.0,0.0,0.0,0.001,0.0,0.0,0.0,0.0,0.0,0.0,0.0,0.0,0.0,0.0,0.0,0.436,0.382,9.67,0.0,0.0,0.0,0.0,0.0,0.0,0.0,0.0,0.0
1576104081969837045,21081,1576104081969401836,,0.0,0.0,0.0,0.0,0.0,0.0,0.0,0.0,0.0,0.0,0.0,0.0,0.0,0.001,-0.002,0.0,0.0,0.0,0.0,0.0,0.0,0.0,0.0,0.0,0.0,0.445,0.385,9.71,0.0,0.0,0.0,0.0,0.0,0.0,0.0,0.0,0.0
1576104081970441209,21082,1576104081970050096,,0.0,0.0,0.0,0.0,0.0,0.0,0.0,0.0,0.0,0.0,0.0,0.0,0.0,-0.0,0.0,0.0,0.0,0.0,0.0,0.0,0.0,0.0,0.0,0.0,0.0,0.436,0.37,9.63,0.0,0.0,0.0,0.0,0.0,0.0,0.0,0.0,0.0
1576104081972338612,21083,1576104081971391916,,0.0,0.0,0.0,0.0,0.0,0.0,0.0,0.0,0.0,0.0,0.0,0.0,0.0,-0.003,0.003,-0.0,0.0,0.0,0.0,0.0,0.0,0.0,0.0,0.0,0.0,0.45,0.375,9.73,0.0,0.0,0.0,0.0,0.0,0.0,0.0,0.0,0.0
1576104081972382114,21084,1576104081971714735,,0.0,0.0,0.0,0.0,0.0,0.0,0.0,0.0,0.0,0.0,0.0,0.0,0.0,-0.002,-0.002,0.0,0.0,0.0,0.0,0.0,0.0,0.0,0.0,0.0,0.0,0.45,0.387,9.73,0.0,0.0,0.0,0.0,0.0,0.0,0.0,0.0,0.0
1576104081972546972,21085,1576104081971997499,,0.0,0.0,0.0,0.0,0.0,0.0,0.0,0.0,0.0,0.0,0.0,0.0,0.0,0.001,0.0,0.0,0.0,0.0,0.0,0.0,0.0,0.0,0.0,0.0,0.0,0.462,0.356,9.69,0.0,0.0,0.0,0.0,0.0,0.0,0.0,0.0,0.0
1576104081973693309,21086,1576104081973090648,,0.0,0.0,0.0,0.0,0.0,0.0,0.0,0.0,0.0,0.0,0.0,0.0,0.0,-0.0,0.001,0.0,0.0,0.0,0.0,0.0,0.0,0.0,0.0,0.0,0.0,0.465,0.354,9.65,0.0,0.0,0.0,0.0,0.0,0.0,0.0,0.0,0.0
1576104081979178162,21087,1576104081978526830,,0.0,0.0,0.0,0.0,0.0,0.0,0.0,0.0,0.0,0.0,0.0,0.0,0.0,0.002,-0.001,0.0,0.0,0.0,0.0,0.0,0.0,0.0,0.0,0.0,0.0,0.467,0.332,9.72,0.0,0.0,0.0,0.0,0.0,0.0,0.0,0.0,0.0
1576104081981746604,21088,1576104081980767965,,0.0,0.0,0.0,0.0,0.0,0.0,0.0,0.0,0.0,0.0,0.0,0.0,0.0,-0.0,-0.001,0.0,0.0,0.0,0.0,0.0,0.0,0.0,0.0,0.0,0.0,0.477,0.342,9.71,0.0,0.0,0.0,0.0,0.0,0.0,0.0,0.0,0.0
1576104081981783521,21089,1576104081981153249,,0.0,0.0,0.0,0.0,0.0,0.0,0.0,0.0,0.0,0.0,0.0,0.0,0.0,0.002,-0.001,0.0,0.0,0.0,0.0,0.0,0.0,0.0,0.0,0.0,0.0,0.479,0.339,9.7,0.0,0.0,0.0,0.0,0.0,0.0,0.0,0.0,0.0
1576104081984323996,21090,1576104081983889102,,0.0,0.0,0.0,0.0,0.0,0.0,0.0,0.0,0.0,0.0,0.0,0.0,0.0,0.001,0.001,0.0,0.0,0.0,0.0,0.0,0.0,0.0,0.0,0.0,0.0,0.457,0.325,9.66,0.0,0.0,0.0,0.0,0.0,0.0,0.0,0.0,0.0
1576104081988084509,21091,1576104081987435102,,0.0,0.0,0.0,0.0,0.0,0.0,0.0,0.0,0.0,0.0,0.0,0.0,0.0,0.001,0.001,0.0,0.0,0.0,0.0,0.0,0.0,0.0,0.0,0.0,0.0,0.441,0.313,9.68,0.0,0.0,0.0,0.0,0.0,0.0,0.0,0.0,0.0
1576104081991155264,21092,1576104081990591049,,0.0,0.0,0.0,0.0,0.0,0.0,0.0,0.0,0.0,0.0,0.0,0.0,0.0,0.003,-0.003,0.0,0.0,0.0,0.0,0.0,0.0,0.0,0.0,0.0,0.0,0.445,0.303,9.7,0.0,0.0,0.0,0.0,0.0,0.0,0.0,0.0,0.0
1576104081994586021,21093,1576104081993947029,,0.0,0.0,0.0,0.0,0.0,0.0,0.0,0.0,0.0,0.0,0.0,0.0,0.0,0.002,-0.002,0.0,0.0,0.0,0.0,0.0,0.0,0.0,0.0,0.0,0.0,0.443,0.332,9.7,0.0,0.0,0.0,0.0,0.0,0.0,0.0,0.0,0.0
1576104081999197448,21094,1576104081998465061,,0.0,0.0,0.0,0.0,0.0,0.0,0.0,0.0,0.0,0.0,0.0,0.0,0.0,-0.0,0.0,0.0,0.0,0.0,0.0,0.0,0.0,0.0,0.0,0.0,0.0,0.429,0.327,9.65,0.0,0.0,0.0,0.0,0.0,0.0,0.0,0.0,0.0
1576104082002684563,21095,1576104082001991271,,0.0,0.0,0.0,0.0,0.0,0.0,0.0,0.0,0.0,0.0,0.0,0.0,0.0,0.001,0.0,0.0,0.0,0.0,0.0,0.0,0.0,0.0,0.0,0.0,0.0,0.424,0.315,9.66,0.0,0.0,0.0,0.0,0.0,0.0,0.0,0.0,0.0
1576104082003732937,21096,1576104082003037452,,0.0,0.0,0.0,0.0,0.0,0.0,0.0,0.0,0.0,0.0,0.0,0.0,0.0,0.002,-0.001,0.0,0.0,0.0,0.0,0.0,0.0,0.0,0.0,0.0,0.0,0.424,0.325,9.69,0.0,0.0,0.0,0.0,0.0,0.0,0.0,0.0,0.0
1576104082006956025,21097,1576104082006208658,,0.0,0.0,0.0,0.0,0.0,0.0,0.0,0.0,0.0,0.0,0.0,0.0,0.0,-0.002,-0.001,0.0,0.0,0.0,0.0,0.0,0.0,0.0,0.0,0.0,0.0,0.426,0.337,9.7,0.0,0.0,0.0,0.0,0.0,0.0,0.0,0.0,0.0
1576104082009979557,21098,1576104082009515285,,0.0,0.0,0.0,0.0,0.0,0.0,0.0,0.0,0.0,0.0,0.0,0.0,0.0,0.001,0.001,-0.0,0.0,0.0,0.0,0.0,0.0,0.0,0.0,0.0,0.0,0.433,0.323,9.7,0.0,0.0,0.0,0.0,0.0,0.0,0.0,0.0,0.0
1576104082011286146,21099,1576104082010671377,,0.0,0.0,0.0,0.0,0.0,0.0,0.0,0.0,0.0,0.0,0.0,0.0,0.0,-0.0,0.001,-0.0,0.0,0.0,0.0,0.0,0.0,0.0,0.0,0.0,0.0,0.424,0.325,9.67,0.0,0.0,0.0,0.0,0.0,0.0,0.0,0.0,0.0
1576104082015790112,21100,1576104082015120983,,0.0,0.0,0.0,0.0,0.0,0.0,0.0,0.0,0.0,0.0,0.0,0.0,0.0,0.001,0.0,-0.0,0.0,0.0,0.0,0.0,0.0,0.0,0.0,0.0,0.0,0.426,0.337,9.65,0.0,0.0,0.0,0.0,0.0,0.0,0.0,0.0,0.0
1576104082018913633,21101,1576104082018428087,,0.0,0.0,0.0,0.0,0.0,0.0,0.0,0.0,0.0,0.0,0.0,0.0,0.0,-0.003,0.003,-0.0,0.0,0.0,0.0,0.0,0.0,0.0,0.0,0.0,0.0,0.424,0.342,9.68,0.0,0.0,0.0,0.0,0.0,0.0,0.0,0.0,0.0
1576104082022760254,21102,1576104082022180557,,0.0,0.0,0.0,0.0,0.0,0.0,0.0,0.0,0.0,0.0,0.0,0.0,0.0,-0.0,-0.001,-0.0,0.0,0.0,0.0,0.0,0.0,0.0,0.0,0.0,0.0,0.412,0.359,9.69,0.0,0.0,0.0,0.0,0.0,0.0,0.0,0.0,0.0
1576104082023794570,21103,1576104082023126125,,0.0,0.0,0.0,0.0,0.0,0.0,0.0,0.0,0.0,0.0,0.0,0.0,0.0,0.001,0.0,-0.0,0.0,0.0,0.0,0.0,0.0,0.0,0.0,0.0,0.0,0.414,0.349,9.7,0.0,0.0,0.0,0.0,0.0,0.0,0.0,0.0,0.0
1576104082028470843,21104,1576104082027702569,,0.0,0.0,0.0,0.0,0.0,0.0,0.0,0.0,0.0,0.0,0.0,0.0,0.0,-0.003,0.0,0.0,0.0,0.0,0.0,0.0,0.0,0.0,0.0,0.0,0.0,0.402,0.351,9.68,0.0,0.0,0.0,0.0,0.0,0.0,0.0,0.0,0.0
1576104082030488047,21105,1576104082029698371,,0.0,0.0,0.0,0.0,0.0,0.0,0.0,0.0,0.0,0.0,0.0,0.0,0.0,-0.0,0.0,-0.0,0.0,0.0,0.0,0.0,0.0,0.0,0.0,0.0,0.0,0.395,0.368,9.68,0.0,0.0,0.0,0.0,0.0,0.0,0.0,0.0,0.0
1576104082033554611,21106,1576104082033060550,,0.0,0.0,0.0,0.0,0.0,0.0,0.0,0.0,0.0,0.0,0.0,0.0,0.0,-0.002,0.001,-0.0,0.0,0.0,0.0,0.0,0.0,0.0,0.0,0.0,0.0,0.407,0.323,9.69,0.0,0.0,0.0,0.0,0.0,0.0,0.0,0.0,0.0
1576104082034600615,21107,1576104082034181833,,0.0,0.0,0.0,0.0,0.0,0.0,0.0,0.0,0.0,0.0,0.0,0.0,0.0,-0.002,0.001,-0.0,0.0,0.0,0.0,0.0,0.0,0.0,0.0,0.0,0.0,0.393,0.337,9.69,0.0,0.0,0.0,0.0,0.0,0.0,0.0,0.0,0.0
1576104082039386097,21108,1576104082038769721,,0.0,0.0,0.0,0.0,0.0,0.0,0.0,0.0,0.0,0.0,0.0,0.0,0.0,-0.002,0.0,-0.0,0.0,0.0,0.0,0.0,0.0,0.0,0.0,0.0,0.0,0.4,0.351,9.7,0.0,0.0,0.0,0.0,0.0,0.0,0.0,0.0,0.0
1576104082060440719,21109,1576104082059685945,,0.0,0.0,0.0,0.0,0.0,0.0,0.0,0.0,0.0,0.0,0.0,0.0,0.0,0.002,0.0,-0.0,0.0,0.0,0.0,0.0,0.0,0.0,0.0,0.0,0.0,0.39,0.335,9.67,0.0,0.0,0.0,0.0,0.0,0.0,0.0,0.0,0.0
1576104082061216276,21110,1576104082060540437,,0.0,0.0,0.0,0.0,0.0,0.0,0.0,0.0,0.0,0.0,0.0,0.0,0.0,-0.003,0.001,-0.0,0.0,0.0,0.0,0.0,0.0,0.0,0.0,0.0,0.0,0.386,0.33,9.7,0.0,0.0,0.0,0.0,0.0,0.0,0.0,0.0,0.0
1576104082062374997,21111,1576104082061607360,,0.0,0.0,0.0,0.0,0.0,0.0,0.0,0.0,0.0,0.0,0.0,0.0,0.0,-0.0,0.001,-0.0,0.0,0.0,0.0,0.0,0.0,0.0,0.0,0.0,0.0,0.369,0.354,9.68,0.0,0.0,0.0,0.0,0.0,0.0,0.0,0.0,0.0
1576104082062597027,21112,1576104082062084436,,0.0,0.0,0.0,0.0,0.0,0.0,0.0,0.0,0.0,0.0,0.0,0.0,0.0,0.002,0.0,-0.0,0.0,0.0,0.0,0.0,0.0,0.0,0.0,0.0,0.0,0.371,0.335,9.68,0.0,0.0,0.0,0.0,0.0,0.0,0.0,0.0,0.0
1576104082063611116,21113,1576104082062630414,,0.0,0.0,0.0,0.0,0.0,0.0,0.0,0.0,0.0,0.0,0.0,0.0,0.0,0.001,-0.001,-0.0,0.0,0.0,0.0,0.0,0.0,0.0,0.0,0.0,0.0,0.374,0.323,9.65,0.0,0.0,0.0,0.0,0.0,0.0,0.0,0.0,0.0
1576104082064425177,21114,1576104082063111305,,0.0,0.0,0.0,0.0,0.0,0.0,0.0,0.0,0.0,0.0,0.0,0.0,0.0,0.001,0.0,-0.0,0.0,0.0,0.0,0.0,0.0,0.0,0.0,0.0,0.0,0.383,0.354,9.7,0.0,0.0,0.0,0.0,0.0,0.0,0.0,0.0,0.0
1576104082064450801,21115,1576104082063555955,,0.0,0.0,0.0,0.0,0.0,0.0,0.0,0.0,0.0,0.0,0.0,0.0,0.0,0.002,-0.001,-0.0,0.0,0.0,0.0,0.0,0.0,0.0,0.0,0.0,0.0,0.378,0.344,9.72,0.0,0.0,0.0,0.0,0.0,0.0,0.0,0.0,0.0
1576104082064680307,21116,1576104082063949584,,0.0,0.0,0.0,0.0,0.0,0.0,0.0,0.0,0.0,0.0,0.0,0.0,0.0,0.001,0.0,-0.0,0.0,0.0,0.0,0.0,0.0,0.0,0.0,0.0,0.0,0.374,0.335,9.66,0.0,0.0,0.0,0.0,0.0,0.0,0.0,0.0,0.0
1576104082064895149,21117,1576104082064421176,,0.0,0.0,0.0,0.0,0.0,0.0,0.0,0.0,0.0,0.0,0.0,0.0,0.0,-0.0,0.0,-0.0,0.0,0.0,0.0,0.0,0.0,0.0,0.0,0.0,0.0,0.393,0.344,9.69,0.0,0.0,0.0,0.0,0.0,0.0,0.0,0.0,0.0
1576104082066805607,21118,1576104082066075563,,0.0,0.0,0.0,0.0,0.0,0.0,0.0,0.0,0.0,0.0,0.0,0.0,0.0,0.001,-0.001,-0.0,0.0,0.0,0.0,0.0,0.0,0.0,0.0,0.0,0.0,0.374,0.361,9.67,0.0,0.0,0.0,0.0,0.0,0.0,0.0,0.0,0.0
1576104082071632107,21119,1576104082071128606,,0.0,0.0,0.0,0.0,0.0,0.0,0.0,0.0,0.0,0.0,0.0,0.0,0.0,0.003,-0.001,-0.0,0.0,0.0,0.0,0.0,0.0,0.0,0.0,0.0,0.0,0.378,0.38,9.68,0.0,0.0,0.0,0.0,0.0,0.0,0.0,0.0,0.0
1576104082078807519,21120,1576104082078055620,,0.0,0.0,0.0,0.0,0.0,0.0,0.0,0.0,0.0,0.0,0.0,0.0,0.0,-0.0,0.0,-0.0,0.0,0.0,0.0,0.0,0.0,0.0,0.0,0.0,0.0,0.407,0.373,9.66,0.0,0.0,0.0,0.0,0.0,0.0,0.0,0.0,0.0
1576104082081943381,21121,1576104082081227540,,0.0,0.0,0.0,0.0,0.0,0.0,0.0,0.0,0.0,0.0,0.0,0.0,0.0,0.001,-0.002,0.0,0.0,0.0,0.0,0.0,0.0,0.0,0.0,0.0,0.0,0.438,0.399,9.68,0.0,0.0,0.0,0.0,0.0,0.0,0.0,0.0,0.0
1576104082086605244,21122,1576104082086073398,,0.0,0.0,0.0,0.0,0.0,0.0,0.0,0.0,0.0,0.0,0.0,0.0,0.0,-0.0,0.0,-0.0,0.0,0.0,0.0,0.0,0.0,0.0,0.0,0.0,0.0,0.407,0.387,9.65,0.0,0.0,0.0,0.0,0.0,0.0,0.0,0.0,0.0
1576104082091284647,21123,1576104082090495824,,0.0,0.0,0.0,0.0,0.0,0.0,0.0,0.0,0.0,0.0,0.0,0.0,0.0,-0.0,-0.001,0.0,0.0,0.0,0.0,0.0,0.0,0.0,0.0,0.0,0.0,0.424,0.409,9.72,0.0,0.0,0.0,0.0,0.0,0.0,0.0,0.0,0.0
1576104082095037217,21124,1576104082094210147,,0.0,0.0,0.0,0.0,0.0,0.0,0.0,0.0,0.0,0.0,0.0,0.0,0.0,0.001,-0.002,-0.0,0.0,0.0,0.0,0.0,0.0,0.0,0.0,0.0,0.0,0.455,0.38,9.73,0.0,0.0,0.0,0.0,0.0,0.0,0.0,0.0,0.0
1576104082097906695,21125,1576104082097346544,,0.0,0.0,0.0,0.0,0.0,0.0,0.0,0.0,0.0,0.0,0.0,0.0,0.0,-0.0,0.001,0.0,0.0,0.0,0.0,0.0,0.0,0.0,0.0,0.0,0.0,0.457,0.418,9.72,0.0,0.0,0.0,0.0,0.0,0.0,0.0,0.0,0.0
1576104082101392452,21126,1576104082100625038,,0.0,0.0,0.0,0.0,0.0,0.0,0.0,0.0,0.0,0.0,0.0,0.0,0.0,-0.003,-0.001,0.0,0.0,0.0,0.0,0.0,0.0,0.0,0.0,0.0,0.0,0.462,0.373,9.6,0.0,0.0,0.0,0.0,0.0,0.0,0.0,0.0,0.0
1576104082102500414,21127,1576104082101735830,,0.0,0.0,0.0,0.0,0.0,0.0,0.0,0.0,0.0,0.0,0.0,0.0,0.0,-0.003,0.001,0.0,0.0,0.0,0.0,0.0,0.0,0.0,0.0,0.0,0.0,0.441,0.435,9.74,0.0,0.0,0.0,0.0,0.0,0.0,0.0,0.0,0.0
1576104082106716557,21128,1576104082105969429,,0.0,0.0,0.0,0.0,0.0,0.0,0.0,0.0,0.0,0.0,0.0,0.0,0.0,-0.0,0.001,0.0,0.0,0.0,0.0,0.0,0.0,0.0,0.0,0.0,0.0,0.395,0.387,9.67,0.0,0.0,0.0,0.0,0.0,0.0,0.0,0.0,0.0
1576104082107845823,21129,1576104082107101917,,0.0,0.0,0.0,0.0,0.0,0.0,0.0,0.0,0.0,0.0,0.0,0.0,0.0,-0.003,0.003,0.0,0.0,0.0,0.0,0.0,0.0,0.0,0.0,0.0,0.0,0.398,0.402,9.66,0.0,0.0,0.0,0.0,0.0,0.0,0.0,0.0,0.0
1576104082110059459,21130,1576104082109281539,,0.0,0.0,0.0,0.0,0.0,0.0,0.0,0.0,0.0,0.0,0.0,0.0,0.0,-0.005,0.001,0.0,0.0,0.0,0.0,0.0,0.0,0.0,0.0,0.0,0.0,0.505,0.378,9.63,0.0,0.0,0.0,0.0,0.0,0.0,0.0,0.0,0.0
1576104082112115253,21131,1576104082111548185,,0.0,0.0,0.0,0.0,0.0,0.0,0.0,0.0,0.0,0.0,0.0,0.0,0.0,-0.0,-0.001,0.0,0.0,0.0,0.0,0.0,0.0,0.0,0.0,0.0,0.0,0.503,0.397,9.62,0.0,0.0,0.0,0.0,0.0,0.0,0.0,0.0,0.0
1576104082117662227,21132,1576104082117095232,,0.0,0.0,0.0,0.0,0.0,0.0,0.0,0.0,0.0,0.0,0.0,0.0,0.0,0.003,-0.001,0.0,0.0,0.0,0.0,0.0,0.0,0.0,0.0,0.0,0.0,0.347,0.311,9.66,0.0,0.0,0.0,0.0,0.0,0.0,0.0,0.0,0.0
1576104082118710315,21133,1576104082118197441,,0.0,0.0,0.0,0.0,0.0,0.0,0.0,0.0,0.0,0.0,0.0,0.0,0.0,0.007,-0.002,0.0,0.0,0.0,0.0,0.0,0.0,0.0,0.0,0.0,0.0,0.347,0.287,9.67,0.0,0.0,0.0,0.0,0.0,0.0,0.0,0.0,0.0
1576104082121045861,21134,1576104082120482206,,0.0,0.0,0.0,0.0,0.0,0.0,0.0,0.0,0.0,0.0,0.0,0.0,0.0,0.005,-0.003,0.0,0.0,0.0,0.0,0.0,0.0,0.0,0.0,0.0,0.0,0.431,0.311,9.87,0.0,0.0,0.0,0.0,0.0,0.0,0.0,0.0,0.0
1576104082124366801,21135,1576104082123784780,,0.0,0.0,0.0,0.0,0.0,0.0,0.0,0.0,0.0,0.0,0.0,0.0,0.0,0.006,-0.007,0.0,0.0,0.0,0.0,0.0,0.0,0.0,0.0,0.0,0.0,0.532,0.277,9.77,0.0,0.0,0.0,0.0,0.0,0.0,0.0,0.0,0.0
1576104082126510047,21136,1576104082126010894,,0.0,0.0,0.0,0.0,0.0,0.0,0.0,0.0,0.0,0.0,0.0,0.0,0.0,0.001,0.001,0.0,0.0,0.0,0.0,0.0,0.0,0.0,0.0,0.0,0.0,0.539,0.263,9.6,0.0,0.0,0.0,0.0,0.0,0.0,0.0,0.0,0.0
1576104082130047150,21137,1576104082129403114,,0.0,0.0,0.0,0.0,0.0,0.0,0.0,0.0,0.0,0.0,0.0,0.0,0.0,-0.004,0.008,0.0,0.0,0.0,0.0,0.0,0.0,0.0,0.0,0.0,0.0,0.467,0.311,9.63,0.0,0.0,0.0,0.0,0.0,0.0,0.0,0.0,0.0
1576104082131130648,21138,1576104082130528450,,0.0,0.0,0.0,0.0,0.0,0.0,0.0,0.0,0.0,0.0,0.0,0.0,0.0,-0.003,-0.002,0.0,0.0,0.0,0.0,0.0,0.0,0.0,0.0,0.0,0.0,0.457,0.289,9.65,0.0,0.0,0.0,0.0,0.0,0.0,0.0,0.0,0.0
1576104082135669116,21139,1576104082135067462,,0.0,0.0,0.0,0.0,0.0,0.0,0.0,0.0,0.0,0.0,0.0,0.0,0.0,-0.004,0.001,-0.0,0.0,0.0,0.0,0.0,0.0,0.0,0.0,0.0,0.0,0.479,0.33,9.81,0.0,0.0,0.0,0.0,0.0,0.0,0.0,0.0,0.0
1576104082140431851,21140,1576104082140056133,,0.0,0.0,0.0,0.0,0.0,0.0,0.0,0.0,0.0,0.0,0.0,0.0,0.0,-0.004,0.003,0.0,0.0,0.0,0.0,0.0,0.0,0.0,0.0,0.0,0.0,0.467,0.308,9.71,0.0,0.0,0.0,0.0,0.0,0.0,0.0,0.0,0.0
1576104082170378551,21141,1576104082169583320,,0.0,0.0,0.0,0.0,0.0,0.0,0.0,0.0,0.0,0.0,0.0,0.0,0.0,0.001,-0.002,-0.0,0.0,0.0,0.0,0.0,0.0,0.0,0.0,0.0,0.0,0.52,0.327,9.59,0.0,0.0,0.0,0.0,0.0,0.0,0.0,0.0,0.0
1576104082172215578,21142,1576104082171497106,,0.0,0.0,0.0,0.0,0.0,0.0,0.0,0.0,0.0,0.0,0.0,0.0,0.0,0.001,-0.002,-0.0,0.0,0.0,0.0,0.0,0.0,0.0,0.0,0.0,0.0,0.505,0.363,9.66,0.0,0.0,0.0,0.0,0.0,0.0,0.0,0.0,0.0
1576104082172245681,21143,1576104082171860694,,0.0,0.0,0.0,0.0,0.0,0.0,0.0,0.0,0.0,0.0,0.0,0.0,0.0,0.003,-0.001,-0.0,0.0,0.0,0.0,0.0,0.0,0.0,0.0,0.0,0.0,0.512,0.342,9.78,0.0,0.0,0.0,0.0,0.0,0.0,0.0,0.0,0.0
1576104082172731522,21144,1576104082172486543,,0.0,0.0,0.0,0.0,0.0,0.0,0.0,0.0,0.0,0.0,0.0,0.0,0.0,0.001,0.0,-0.0,0.0,0.0,0.0,0.0,0.0,0.0,0.0,0.0,0.0,0.465,0.39,9.71,0.0,0.0,0.0,0.0,0.0,0.0,0.0,0.0,0.0
1576104082174026554,21145,1576104082173800706,,0.0,0.0,0.0,0.0,0.0,0.0,0.0,0.0,0.0,0.0,0.0,0.0,0.0,0.002,0.001,-0.0,0.0,0.0,0.0,0.0,0.0,0.0,0.0,0.0,0.0,0.429,0.394,9.63,0.0,0.0,0.0,0.0,0.0,0.0,0.0,0.0,0.0
1576104082174194146,21146,1576104082174019575,,0.0,0.0,0.0,0.0,0.0,0.0,0.0,0.0,0.0,0.0,0.0,0.0,0.0,0.003,0.0,-0.0,0.0,0.0,0.0,0.0,0.0,0.0,0.0,0.0,0.0,0.453,0.402,9.63,0.0,0.0,0.0,0.0,0.0,0.0,0.0,0.0,0.0
1576104082175298843,21147,1576104082175051927,,0.0,0.0,0.0,0.0,0.0,0.0,0.0,0.0,0.0,0.0,0.0,0.0,0.0,-0.005,0.0,-0.0,0.0,0.0,0.0,0.0,0.0,0.0,0.0,0.0,0.0,0.522,0.363,9.68,0.0,0.0,0.0,0.0,0.0,0.0,0.0,0.0,0.0
1576104082177163248,21148,1576104082176773786,,0.0,0.0,0.0,0.0,0.0,0.0,0.0,0.0,0.0,0.0,0.0,0.0,0.0,-0.005,0.001,-0.0,0.0,0.0,0.0,0.0,0.0,0.0,0.0,0.0,0.0,0.453,0.382,9.63,0.0,0.0,0.0,0.0,0.0,0.0,0.0,0.0,0.0
1576104082177216157,21149,1576104082176976442,,0.0,0.0,0.0,0.0,0.0,0.0,0.0,0.0,0.0,0.0,0.0,0.0,0.0,0.002,0.003,-0.0,0.0,0.0,0.0,0.0,0.0,0.0,0.0,0.0,0.0,0.455,0.363,9.65,0.0,0.0,0.0,0.0,0.0,0.0,0.0,0.0,0.0
1576104082178438832,21150,1576104082178257942,,0.0,0.0,0.0,0.0,0.0,0.0,0.0,0.0,0.0,0.0,0.0,0.0,0.0,0.003,0.0,-0.0,0.0,0.0,0.0,0.0,0.0,0.0,0.0,0.0,0.0,0.472,0.359,9.66,0.0,0.0,0.0,0.0,0.0,0.0,0.0,0.0,0.0
1576104082181688590,21151,1576104082181510448,,0.0,0.0,0.0,0.0,0.0,0.0,0.0,0.0,0.0,0.0,0.0,0.0,0.0,0.003,0.001,-0.0,0.0,0.0,0.0,0.0,0.0,0.0,0.0,0.0,0.0,0.489,0.363,9.73,0.0,0.0,0.0,0.0,0.0,0.0,0.0,0.0,0.0
1576104082184208614,21152,1576104082183533430,,0.0,0.0,0.0,0.0,0.0,0.0,0.0,0.0,0.0,0.0,0.0,0.0,0.0,0.003,0.001,-0.0,0.0,0.0,0.0,0.0,0.0,0.0,0.0,0.0,0.0,0.481,0.33,9.72,0.0,0.0,0.0,0.0,0.0,0.0,0.0,0.0,0.0
1576104082186761013,21153,1576104082185935497,,0.0,0.0,0.0,0.0,0.0,0.0,0.0,0.0,0.0,0.0,0.0,0.0,0.0,0.001,0.004,-0.0,0.0,0.0,0.0,0.0,0.0,0.0,0.0,0.0,0.0,0.501,0.332,9.73,0.0,0.0,0.0,0.0,0.0,0.0,0.0,0.0,0.0
1576104082190957236,21154,1576104082190282583,,0.0,0.0,0.0,0.0,0.0,0.0,0.0,0.0,0.0,0.0,0.0,0.0,0.0,0.002,0.003,-0.0,0.0,0.0,0.0,0.0,0.0,0.0,0.0,0.0,0.0,0.503,0.308,9.66,0.0,0.0,0.0,0.0,0.0,0.0,0.0,0.0,0.0
1576104082194618138,21155,1576104082193944692,,0.0,0.0,0.0,0.0,0.0,0.0,0.0,0.0,0.0,0.0,0.0,0.0,0.0,-0.002,0.004,-0.0,0.0,0.0,0.0,0.0,0.0,0.0,0.0,0.0,0.0,0.489,0.277,9.72,0.0,0.0,0.0,0.0,0.0,0.0,0.0,0.0,0.0
1576104082195745010,21156,1576104082195085048,,0.0,0.0,0.0,0.0,0.0,0.0,0.0,0.0,0.0,0.0,0.0,0.0,0.0,-0.004,0.001,-0.0,0.0,0.0,0.0,0.0,0.0,0.0,0.0,0.0,0.0,0.503,0.265,9.69,0.0,0.0,0.0,0.0,0.0,0.0,0.0,0.0,0.0
1576104082200273267,21157,1576104082199589490,,0.0,0.0,0.0,0.0,0.0,0.0,0.0,0.0,0.0,0.0,0.0,0.0,0.0,0.001,0.003,-0.0,0.0,0.0,0.0,0.0,0.0,0.0,0.0,0.0,0.0,0.522,0.265,9.67,0.0,0.0,0.0,0.0,0.0,0.0,0.0,0.0,0.0
1576104082203773163,21158,1576104082202939510,,0.0,0.0,0.0,0.0,0.0,0.0,0.0,0.0,0.0,0.0,0.0,0.0,0.0,-0.002,0.001,-0.0,0.0,0.0,0.0,0.0,0.0,0.0,0.0,0.0,0.0,0.546,0.263,9.7,0.0,0.0,0.0,0.0,0.0,0.0,0.0,0.0,0.0
1576104082205847212,21159,1576104082205178737,,0.0,0.0,0.0,0.0,0.0,0.0,0.0,0.0,0.0,0.0,0.0,0.0,0.0,0.001,-0.001,-0.0,0.0,0.0,0.0,0.0,0.0,0.0,0.0,0.0,0.0,0.534,0.198,9.7,0.0,0.0,0.0,0.0,0.0,0.0,0.0,0.0,0.0
1576104082211649875,21160,1576104082210870742,,0.0,0.0,0.0,0.0,0.0,0.0,0.0,0.0,0.0,0.0,0.0,0.0,0.0,0.003,0.0,-0.0,0.0,0.0,0.0,0.0,0.0,0.0,0.0,0.0,0.0,0.41,0.224,9.66,0.0,0.0,0.0,0.0,0.0,0.0,0.0,0.0,0.0
1576104082212483480,21161,1576104082211971521,,0.0,0.0,0.0,0.0,0.0,0.0,0.0,0.0,0.0,0.0,0.0,0.0,0.0,0.003,0.001,-0.0,0.0,0.0,0.0,0.0,0.0,0.0,0.0,0.0,0.0,0.498,0.22,9.72,0.0,0.0,0.0,0.0,0.0,0.0,0.0,0.0,0.0
1576104082219633530,21162,1576104082218607187,,0.0,0.0,0.0,0.0,0.0,0.0,0.0,0.0,0.0,0.0,0.0,0.0,0.0,0.003,-0.003,-0.0,0.0,0.0,0.0,0.0,0.0,0.0,0.0,0.0,0.0,0.551,0.162,9.71,0.0,0.0,0.0,0.0,0.0,0.0,0.0,0.0,0.0
1576104082220188382,21163,1576104082219672918,,0.0,0.0,0.0,0.0,0.0,0.0,0.0,0.0,0.0,0.0,0.0,0.0,0.0,0.001,0.004,-0.0,0.0,0.0,0.0,0.0,0.0,0.0,0.0,0.0,0.0,0.503,0.196,9.6,0.0,0.0,0.0,0.0,0.0,0.0,0.0,0.0,0.0
1576104082226036912,21164,1576104082225378751,,0.0,0.0,0.0,0.0,0.0,0.0,0.0,0.0,0.0,0.0,0.0,0.0,0.0,-0.002,0.0,-0.0,0.0,0.0,0.0,0.0,0.0,0.0,0.0,0.0,0.0,0.376,0.253,9.72,0.0,0.0,0.0,0.0,0.0,0.0,0.0,0.0,0.0
1576104082231442026,21165,1576104082230669260,,0.0,0.0,0.0,0.0,0.0,0.0,0.0,0.0,0.0,0.0,0.0,0.0,0.0,-0.0,0.003,-0.0,0.0,0.0,0.0,0.0,0.0,0.0,0.0,0.0,0.0,0.4,0.201,9.66,0.0,0.0,0.0,0.0,0.0,0.0,0.0,0.0,0.0
1576104082233008116,21166,1576104082232367038,,0.0,0.0,0.0,0.0,0.0,0.0,0.0,0.0,0.0,0.0,0.0,0.0,0.0,-0.004,0.003,-0.0,0.0,0.0,0.0,0.0,0.0,0.0,0.0,0.0,0.0,0.414,0.162,9.68,0.0,0.0,0.0,0.0,0.0,0.0,0.0,0.0,0.0
1576104082237293896,21167,1576104082236600637,,0.0,0.0,0.0,0.0,0.0,0.0,0.0,0.0,0.0,0.0,0.0,0.0,0.0,-0.0,-0.002,-0.0,0.0,0.0,0.0,0.0,0.0,0.0,0.0,0.0,0.0,0.419,0.246,9.65,0.0,0.0,0.0,0.0,0.0,0.0,0.0,0.0,0.0
1576104082241011603,21168,1576104082240068435,,0.0,0.0,0.0,0.0,0.0,0.0,0.0,0.0,0.0,0.0,0.0,0.0,0.0,0.002,-0.001,-0.0,0.0,0.0,0.0,0.0,0.0,0.0,0.0,0.0,0.0,0.331,0.282,9.66,0.0,0.0,0.0,0.0,0.0,0.0,0.0,0.0,0.0
1576104082241628206,21169,1576104082240990877,,0.0,0.0,0.0,0.0,0.0,0.0,0.0,0.0,0.0,0.0,0.0,0.0,0.0,0.001,0.003,-0.0,0.0,0.0,0.0,0.0,0.0,0.0,0.0,0.0,0.0,0.261,0.217,9.66,0.0,0.0,0.0,0.0,0.0,0.0,0.0,0.0,0.0
1576104082269662241,21170,1576104082268514156,,0.0,0.0,0.0,0.0,0.0,0.0,0.0,0.0,0.0,0.0,0.0,0.0,0.0,0.002,-0.001,-0.0,0.0,0.0,0.0,0.0,0.0,0.0,0.0,0.0,0.0,0.343,0.215,9.77,0.0,0.0,0.0,0.0,0.0,0.0,0.0,0.0,0.0
1576104082269699262,21171,1576104082269000530,,0.0,0.0,0.0,0.0,0.0,0.0,0.0,0.0,0.0,0.0,0.0,0.0,0.0,-0.0,-0.003,-0.0,0.0,0.0,0.0,0.0,0.0,0.0,0.0,0.0,0.0,0.489,0.205,9.74,0.0,0.0,0.0,0.0,0.0,0.0,0.0,0.0,0.0
1576104082270225199,21172,1576104082269303321,,0.0,0.0,0.0,0.0,0.0,0.0,0.0,0.0,0.0,0.0,0.0,0.0,0.0,-0.003,0.0,-0.0,0.0,0.0,0.0,0.0,0.0,0.0,0.0,0.0,0.0,0.534,0.174,9.73,0.0,0.0,0.0,0.0,0.0,0.0,0.0,0.0,0.0
1576104082272494914,21173,1576104082271710634,,0.0,0.0,0.0,0.0,0.0,0.0,0.0,0.0,0.0,0.0,0.0,0.0,0.0,-0.004,0.003,-0.0,0.0,0.0,0.0,0.0,0.0,0.0,0.0,0.0,0.0,0.52,0.129,9.61,0.0,0.0,0.0,0.0,0.0,0.0,0.0,0.0,0.0
1576104082272862443,21174,1576104082272203207,,0.0,0.0,0.0,0.0,0.0,0.0,0.0,0.0,0.0,0.0,0.0,0.0,0.0,0.001,0.003,-0.0,0.0,0.0,0.0,0.0,0.0,0.0,0.0,0.0,0.0,0.501,0.038,9.57,0.0,0.0,0.0,0.0,0.0,0.0,0.0,0.0,0.0
1576104082273519214,21175,1576104082273115634,,0.0,0.0,0.0,0.0,0.0,0.0,0.0,0.0,0.0,0.0,0.0,0.0,0.0,0.002,-0.003,-0.0,0.0,0.0,0.0,0.0,0.0,0.0,0.0,0.0,0.0,0.599,0.011,9.71,0.0,0.0,0.0,0.0,0.0,0.0,0.0,0.0,0.0
1576104082273994067,21176,1576104082273642063,,0.0,0.0,0.0,0.0,0.0,0.0,0.0,0.0,0.0,0.0,0.0,0.0,0.0,0.001,-0.002,-0.0,0.0,0.0,0.0,0.0,0.0,0.0,0.0,0.0,0.0,0.548,0.028,9.75,0.0,0.0,0.0,0.0,0.0,0.0,0.0,0.0,0.0
1576104082274379378,21177,1576104082273989677,,0.0,0.0,0.0,0.0,0.0,0.0,0.0,0.0,0.0,0.0,0.0,0.0,0.0,0.005,0.005,-0.0,0.0,0.0,0.0,0.0,0.0,0.0,0.0,0.0,0.0,0.529,-0.025,9.67,0.0,0.0,0.0,0.0,0.0,0.0,0.0,0.0,0.0
1576104082275224376,21178,1576104082274417400,,0.0,0.0,0.0,0.0,0.0,0.0,0.0,0.0,0.0,0.0,0.0,0.0,0.0,0.007,0.0,-0.0,0.0,0.0,0.0,0.0,0.0,0.0,0.0,0.0,0.0,0.594,-0.005,9.62,0.0,0.0,0.0,0.0,0.0,0.0,0.0,0.0,0.0
1576104082275285138,21179,1576104082274840831,,0.0,0.0,0.0,0.0,0.0,0.0,0.0,0.0,0.0,0.0,0.0,0.0,0.0,0.006,0.0,-0.0,0.0,0.0,0.0,0.0,0.0,0.0,0.0,0.0,0.0,0.515,0.047,9.82,0.0,0.0,0.0,0.0,0.0,0.0,0.0,0.0,0.0
1576104082275697850,21180,1576104082275341749,,0.0,0.0,0.0,0.0,0.0,0.0,0.0,0.0,0.0,0.0,0.0,0.0,0.0,0.003,0.006,-0.0,0.0,0.0,0.0,0.0,0.0,0.0,0.0,0.0,0.0,0.484,0.074,9.76,0.0,0.0,0.0,0.0,0.0,0.0,0.0,0.0,0.0
1576104082279712488,21181,1576104082279234409,,0.0,0.0,0.0,0.0,0.0,0.0,0.0,0.0,0.0,0.0,0.0,0.0,0.0,-0.0,0.005,-0.0,0.0,0.0,0.0,0.0,0.0,0.0,0.0,0.0,0.0,0.362,0.215,9.72,0.0,0.0,0.0,0.0,0.0,0.0,0.0,0.0,0.0
1576104082281916135,21182,1576104082281507492,,0.0,0.0,0.0,0.0,0.0,0.0,0.0,0.0,0.0,0.0,0.0,0.0,0.0,0.003,0.006,-0.0,0.0,0.0,0.0,0.0,0.0,0.0,0.0,0.0,0.0,0.242,0.325,9.67,0.0,0.0,0.0,0.0,0.0,0.0,0.0,0.0,0.0
1576104082286179738,21183,1576104082285479068,,0.0,0.0,0.0,0.0,0.0,0.0,0.0,0.0,0.0,0.0,0.0,0.0,0.0,0.003,0.006,-0.0,0.0,0.0,0.0,0.0,0.0,0.0,0.0,0.0,0.0,0.18,0.447,9.61,0.0,0.0,0.0,0.0,0.0,0.0,0.0,0.0,0.0
1576104082288687842,21184,1576104082288161754,,0.0,0.0,0.0,0.0,0.0,0.0,0.0,0.0,0.0,0.0,0.0,0.0,0.0,0.003,0.001,-0.0,0.0,0.0,0.0,0.0,0.0,0.0,0.0,0.0,0.0,0.091,0.658,9.68,0.0,0.0,0.0,0.0,0.0,0.0,0.0,0.0,0.0
1576104082294657335,21185,1576104082294005393,,0.0,0.0,0.0,0.0,0.0,0.0,0.0,0.0,0.0,0.0,0.0,0.0,0.0,0.008,0.001,0.0,0.0,0.0,0.0,0.0,0.0,0.0,0.0,0.0,0.0,0.043,0.72,9.76,0.0,0.0,0.0,0.0,0.0,0.0,0.0,0.0,0.0
1576104082297714671,21186,1576104082297055006,,0.0,0.0,0.0,0.0,0.0,0.0,0.0,0.0,0.0,0.0,0.0,0.0,0.0,0.005,0.004,0.0,0.0,0.0,0.0,0.0,0.0,0.0,0.0,0.0,0.0,-0.017,0.864,9.55,0.0,0.0,0.0,0.0,0.0,0.0,0.0,0.0,0.0
1576104082302623788,21187,1576104082301932334,,0.0,0.0,0.0,0.0,0.0,0.0,0.0,0.0,0.0,0.0,0.0,0.0,0.0,-0.002,-0.003,0.0,0.0,0.0,0.0,0.0,0.0,0.0,0.0,0.0,0.0,0.007,0.876,9.69,0.0,0.0,0.0,0.0,0.0,0.0,0.0,0.0,0.0
1576104082304431917,21188,1576104082303729057,,0.0,0.0,0.0,0.0,0.0,0.0,0.0,0.0,0.0,0.0,0.0,0.0,0.0,-0.003,-0.005,0.0,0.0,0.0,0.0,0.0,0.0,0.0,0.0,0.0,0.0,0.022,0.821,9.7,0.0,0.0,0.0,0.0,0.0,0.0,0.0,0.0,0.0
1576104082306810185,21189,1576104082306119441,,0.0,0.0,0.0,0.0,0.0,0.0,0.0,0.0,0.0,0.0,0.0,0.0,0.0,-0.006,-0.003,0.0,0.0,0.0,0.0,0.0,0.0,0.0,0.0,0.0,0.0,0.067,0.773,9.67,0.0,0.0,0.0,0.0,0.0,0.0,0.0,0.0,0.0
1576104082310195473,21190,1576104082309475660,,0.0,0.0,0.0,0.0,0.0,0.0,0.0,0.0,0.0,0.0,0.0,0.0,0.0,-0.004,-0.005,0.02,0.0,0.0,0.0,0.0,0.0,0.0,0.0,0.0,0.0,0.117,0.734,9.64,0.0,0.0,0.0,0.0,0.0,0.0,0.0,0.0,0.0
1576104082314778642,21191,1576104082314083576,,0.0,0.0,0.0,0.0,0.0,0.0,0.0,0.0,0.0,0.0,0.0,0.0,0.0,-0.006,-0.002,0.0,0.0,0.0,0.0,0.0,0.0,0.0,0.0,0.0,0.0,0.213,0.6,9.66,0.0,0.0,0.0,0.0,0.0,0.0,0.0,0.0,0.0
1576104082319064608,21192,1576104082318377494,,0.0,0.0,0.0,0.0,0.0,0.0,0.0,0.0,0.0,0.0,0.0,0.0,0.0,-0.004,0.0,0.02,0.0,0.0,0.0,0.0,0.0,0.0,0.0,0.0,0.0,0.304,0.459,9.68,0.0,0.0,0.0,0.0,0.0,0.0,0.0,0.0,0.0
1576104082322428664,21193,1576104082321743965,,0.0,0.0,0.0,0.0,0.0,0.0,0.0,0.0,0.0,0.0,0.0,0.0,0.0,-0.004,-0.005,0.0,0.0,0.0,0.0,0.0,0.0,0.0,0.0,0.0,0.0,0.333,0.402,9.72,0.0,0.0,0.0,0.0,0.0,0.0,0.0,0.0,0.0
1576104082326913419,21194,1576104082326233386,,0.0,0.0,0.0,0.0,0.0,0.0,0.0,0.0,0.0,0.0,0.0,0.0,0.0,-0.003,-0.001,0.0,0.0,0.0,0.0,0.0,0.0,0.0,0.0,0.0,0.0,0.347,0.253,9.68,0.0,0.0,0.0,0.0,0.0,0.0,0.0,0.0,0.0
1576104082329142105,21195,1576104082328492403,,0.0,0.0,0.0,0.0,0.0,0.0,0.0,0.0,0.0,0.0,0.0,0.0,0.0,-0.005,-0.001,0.03,0.0,0.0,0.0,0.0,0.0,0.0,0.0,0.0,0.0,0.407,0.145,9.63,0.0,0.0,0.0,0.0,0.0,0.0,0.0,0.0,0.0
1576104082331250350,21196,1576104082330730199,,0.0,0.0,0.0,0.0,0.0,0.0,0.0,0.0,0.0,0.0,0.0,0.0,0.0,-0.005,0.0,0.0,0.0,0.0,0.0,0.0,0.0,0.0,0.0,0.0,0.0,0.436,0.074,9.67,0.0,0.0,0.0,0.0,0.0,0.0,0.0,0.0,0.0
1576104082334627050,21197,1576104082334080934,,0.0,0.0,0.0,0.0,0.0,0.0,0.0,0.0,0.0,0.0,0.0,0.0,0.0,-0.006,-0.003,0.0,0.0,0.0,0.0,0.0,0.0,0.0,0.0,0.0,0.0,0.474,0.019,9.71,0.0,0.0,0.0,0.0,0.0,0.0,0.0,0.0,0.0
1576104082339401877,21198,1576104082338510513,,0.0,0.0,0.0,0.0,0.0,0.0,0.0,0.0,0.0,0.0,0.0,0.0,0.0,-0.003,-0.002,0.02,0.0,0.0,0.0,0.0,0.0,0.0,0.0,0.0,0.0,0.553,-0.125,9.78,0.0,0.0,0.0,0.0,0.0,0.0,0.0,0.0,0.0
1576104082342571593,21199,1576104082341860055,,0.0,0.0,0.0,0.0,0.0,0.0,0.0,0.0,0.0,0.0,0.0,0.0,0.0,0.002,-0.001,0.0,0.0,0.0,0.0,0.0,0.0,0.0,0.0,0.0,0.0,0.625,-0.175,9.74,0.0,0.0,0.0,0.0,0.0,0.0,0.0,0.0,0.0
1576104082342807437,21200,1576104082342244148,,0.0,0.0,0.0,0.0,0.0,0.0,0.0,0.0,0.0,0.0,0.0,0.0,0.0,-0.002,-0.002,0.0,0.0,0.0,0.0,0.0,0.0,0.0,0.0,0.0,0.0,0.637,-0.216,9.7,0.0,0.0,0.0,0.0,0.0,0.0,0.0,0.0,0.0
1576104082364234710,21201,1576104082363292932,,0.0,0.0,0.0,0.0,0.0,0.0,0.0,0.0,0.0,0.0,0.0,0.0,0.0,-0.002,-0.001,0.0,0.0,0.0,0.0,0.0,0.0,0.0,0.0,0.0,0.0,0.659,-0.221,9.72,0.0,0.0,0.0,0.0,0.0,0.0,0.0,0.0,0.0
1576104082364535217,21202,1576104082363890647,,0.0,0.0,0.0,0.0,0.0,0.0,0.0,0.0,0.0,0.0,0.0,0.0,0.0,-0.002,0.0,0.01,0.0,0.0,0.0,0.0,0.0,0.0,0.0,0.0,0.0,0.637,-0.173,9.71,0.0,0.0,0.0,0.0,0.0,0.0,0.0,0.0,0.0
1576104082365118975,21203,1576104082364688396,,0.0,0.0,0.0,0.0,0.0,0.0,0.0,0.0,0.0,0.0,0.0,0.0,0.0,-0.002,0.0,0.0,0.0,0.0,0.0,0.0,0.0,0.0,0.0,0.0,0.0,0.623,-0.135,9.71,0.0,0.0,0.0,0.0,0.0,0.0,0.0,0.0,0.0
1576104082366074378,21204,1576104082365295171,,0.0,0.0,0.0,0.0,0.0,0.0,0.0,0.0,0.0,0.0,0.0,0.0,0.0,0.003,0.001,0.0,0.0,0.0,0.0,0.0,0.0,0.0,0.0,0.0,0.0,0.632,-0.027,9.67,0.0,0.0,0.0,0.0,0.0,0.0,0.0,0.0,0.0
1576104082366116483,21205,1576104082365609884,,0.0,0.0,0.0,0.0,0.0,0.0,0.0,0.0,0.0,0.0,0.0,0.0,0.0,0.006,0.0,0.0,0.0,0.0,0.0,0.0,0.0,0.0,0.0,0.0,0.0,0.642,0.007,9.68,0.0,0.0,0.0,0.0,0.0,0.0,0.0,0.0,0.0
1576104082367065164,21206,1576104082366672039,,0.0,0.0,0.0,0.0,0.0,0.0,0.0,0.0,0.0,0.0,0.0,0.0,0.0,0.005,-0.001,-0.0,0.0,0.0,0.0,0.0,0.0,0.0,0.0,0.0,0.0,0.632,0.038,9.68,0.0,0.0,0.0,0.0,0.0,0.0,0.0,0.0,0.0
1576104082367490016,21207,1576104082367079257,,0.0,0.0,0.0,0.0,0.0,0.0,0.0,0.0,0.0,0.0,0.0,0.0,0.0,0.006,0.0,-0.0,0.0,0.0,0.0,0.0,0.0,0.0,0.0,0.0,0.0,0.635,0.076,9.72,0.0,0.0,0.0,0.0,0.0,0.0,0.0,0.0,0.0
1576104082369841675,21208,1576104082369483709,,0.0,0.0,0.0,0.0,0.0,0.0,0.0,0.0,0.0,0.0,0.0,0.0,0.0,0.003,0.0,-0.0,0.0,0.0,0.0,0.0,0.0,0.0,0.0,0.0,0.0,0.615,0.174,9.66,0.0,0.0,0.0,0.0,0.0,0.0,0.0,0.0,0.0
1576104082373300253,21209,1576104082372836589,,0.0,0.0,0.0,0.0,0.0,0.0,0.0,0.0,0.0,0.0,0.0,0.0,0.0,0.006,0.0,-0.0,0.0,0.0,0.0,0.0,0.0,0.0,0.0,0.0,0.0,0.599,0.217,9.68,0.0,0.0,0.0,0.0,0.0,0.0,0.0,0.0,0.0
1576104082375531819,21210,1576104082375123262,,0.0,0.0,0.0,0.0,0.0,0.0,0.0,0.0,0.0,0.0,0.0,0.0,0.0,0.003,0.001,-0.0,0.0,0.0,0.0,0.0,0.0,0.0,0.0,0.0,0.0,0.601,0.263,9.69,0.0,0.0,0.0,0.0,0.0,0.0,0.0,0.0,0.0
1576104082382048202,21211,1576104082381168365,,0.0,0.0,0.0,0.0,0.0,0.0,0.0,0.0,0.0,0.0,0.0,0.0,0.0,0.003,0.0,-0.01,0.0,0.0,0.0,0.0,0.0,0.0,0.0,0.0,0.0,0.601,0.272,9.7,0.0,0.0,0.0,0.0,0.0,0.0,0.0,0.0,0.0
1576104082382732363,21212,1576104082382057189,,0.0,0.0,0.0,0.0,0.0,0.0,0.0,0.0,0.0,0.0,0.0,0.0,0.0,0.005,-0.001,-0.0,0.0,0.0,0.0,0.0,0.0,0.0,0.0,0.0,0.0,0.611,0.313,9.71,0.0,0.0,0.0,0.0,0.0,0.0,0.0,0.0,0.0
1576104082384722870,21213,1576104082384056568,,0.0,0.0,0.0,0.0,0.0,0.0,0.0,0.0,0.0,0.0,0.0,0.0,0.0,0.005,0.0,-0.0,0.0,0.0,0.0,0.0,0.0,0.0,0.0,0.0,0.0,0.603,0.347,9.7,0.0,0.0,0.0,0.0,0.0,0.0,0.0,0.0,0.0
1576104082387916000,21214,1576104082387367963,,0.0,0.0,0.0,0.0,0.0,0.0,0.0,0.0,0.0,0.0,0.0,0.0,0.0,0.006,0.001,-0.01,0.0,0.0,0.0,0.0,0.0,0.0,0.0,0.0,0.0,0.58,0.366,9.67,0.0,0.0,0.0,0.0,0.0,0.0,0.0,0.0,0.0
1576104082390302942,21215,1576104082389535665,,0.0,0.0,0.0,0.0,0.0,0.0,0.0,0.0,0.0,0.0,0.0,0.0,0.0,0.002,0.004,-0.0,0.0,0.0,0.0,0.0,0.0,0.0,0.0,0.0,0.0,0.563,0.394,9.65,0.0,0.0,0.0,0.0,0.0,0.0,0.0,0.0,0.0
1576104082392515579,21216,1576104082391834735,,0.0,0.0,0.0,0.0,0.0,0.0,0.0,0.0,0.0,0.0,0.0,0.0,0.0,0.002,0.003,-0.0,0.0,0.0,0.0,0.0,0.0,0.0,0.0,0.0,0.0,0.524,0.411,9.63,0.0,0.0,0.0,0.0,0.0,0.0,0.0,0.0,0.0
1576104082403544073,21217,1576104082402940988,,0.0,0.0,0.0,0.0,0.0,0.0,0.0,0.0,0.0,0.0,0.0,0.0,0.0,0.003,0.0,-0.02,0.0,0.0,0.0,0.0,0.0,0.0,0.0,0.0,0.0,0.45,0.457,9.66,0.0,0.0,0.0,0.0,0.0,0.0,0.0,0.0,0.0
1576104082416625509,21218,1576104082416113853,,0.0,0.0,0.0,0.0,0.0,0.0,0.0,0.0,0.0,0.0,0.0,0.0,0.0,0.001,0.001,-0.0,0.0,0.0,0.0,0.0,0.0,0.0,0.0,0.0,0.0,0.407,0.43,9.67,0.0,0.0,0.0,0.0,0.0,0.0,0.0,0.0,0.0
1576104082422897386,21219,1576104082422348260,,0.0,0.0,0.0,0.0,0.0,0.0,0.0,0.0,0.0,0.0,0.0,0.0,0.0,0.003,0.0,-0.0,0.0,0.0,0.0,0.0,0.0,0.0,0.0,0.0,0.0,0.254,0.469,9.66,0.0,0.0,0.0,0.0,0.0,0.0,0.0,0.0,0.0
1576104082424405783,21220,1576104082423755884,,0.0,0.0,0.0,0.0,0.0,0.0,0.0,0.0,0.0,0.0,0.0,0.0,0.0,-0.0,0.003,-0.0,0.0,0.0,0.0,0.0,0.0,0.0,0.0,0.0,0.0,0.216,0.464,9.67,0.0,0.0,0.0,0.0,0.0,0.0,0.0,0.0,0.0
1576104082425794699,21221,1576104082425254821,,0.0,0.0,0.0,0.0,0.0,0.0,0.0,0.0,0.0,0.0,0.0,0.0,0.0,-0.004,-0.001,-0.0,0.0,0.0,0.0,0.0,0.0,0.0,0.0,0.0,0.0,0.17,0.39,9.68,0.0,0.0,0.0,0.0,0.0,0.0,0.0,0.0,0.0
1576104082428023128,21222,1576104082427386283,,0.0,0.0,0.0,0.0,0.0,0.0,0.0,0.0,0.0,0.0,0.0,0.0,0.0,-0.003,-0.002,-0.0,0.0,0.0,0.0,0.0,0.0,0.0,0.0,0.0,0.0,0.192,0.385,9.68,0.0,0.0,0.0,0.0,0.0,0.0,0.0,0.0,0.0
1576104082431615850,21223,1576104082431165218,,0.0,0.0,0.0,0.0,0.0,0.0,0.0,0.0,0.0,0.0,0.0,0.0,0.0,-0.005,-0.002,-0.0,0.0,0.0,0.0,0.0,0.0,0.0,0.0,0.0,0.0,0.192,0.347,9.7,0.0,0.0,0.0,0.0,0.0,0.0,0.0,0.0,0.0
1576104082432333650,21224,1576104082431650638,,0.0,0.0,0.0,0.0,0.0,0.0,0.0,0.0,0.0,0.0,0.0,0.0,0.0,-0.002,-0.003,-0.0,0.0,0.0,0.0,0.0,0.0,0.0,0.0,0.0,0.0,0.211,0.306,9.7,0.0,0.0,0.0,0.0,0.0,0.0,0.0,0.0,0.0
1576104082436867605,21225,1576104082436442136,,0.0,0.0,0.0,0.0,0.0,0.0,0.0,0.0,0.0,0.0,0.0,0.0,0.0,-0.003,-0.002,0.0,0.0,0.0,0.0,0.0,0.0,0.0,0.0,0.0,0.0,0.266,0.258,9.67,0.0,0.0,0.0,0.0,0.0,0.0,0.0,0.0,0.0
1576104082444130469,21226,1576104082443439722,,0.0,0.0,0.0,0.0,0.0,0.0,0.0,0.0,0.0,0.0,0.0,0.0,0.0,-0.004,-0.006,0.0,0.0,0.0,0.0,0.0,0.0,0.0,0.0,0.0,0.0,0.34,0.193,9.72,0.0,0.0,0.0,0.0,0.0,0.0,0.0,0.0,0.0
1576104082462252575,21227,1576104082461416482,,0.0,0.0,0.0,0.0,0.0,0.0,0.0,0.0,0.0,0.0,0.0,0.0,0.0,-0.002,-0.006,0.0,0.0,0.0,0.0,0.0,0.0,0.0,0.0,0.0,0.0,0.335,0.177,9.71,0.0,0.0,0.0,0.0,0.0,0.0,0.0,0.0,0.0
1576104082463443671,21228,1576104082462669134,,0.0,0.0,0.0,0.0,0.0,0.0,0.0,0.0,0.0,0.0,0.0,0.0,0.0,-0.002,-0.002,0.0,0.0,0.0,0.0,0.0,0.0,0.0,0.0,0.0,0.0,0.386,0.157,9.69,0.0,0.0,0.0,0.0,0.0,0.0,0.0,0.0,0.0
1576104082464871218,21229,1576104082464050769,,0.0,0.0,0.0,0.0,0.0,0.0,0.0,0.0,0.0,0.0,0.0,0.0,0.0,-0.002,-0.001,0.0,0.0,0.0,0.0,0.0,0.0,0.0,0.0,0.0,0.0,0.422,0.095,9.66,0.0,0.0,0.0,0.0,0.0,0.0,0.0,0.0,0.0
1576104082464913920,21230,1576104082464392185,,0.0,0.0,0.0,0.0,0.0,0.0,0.0,0.0,0.0,0.0,0.0,0.0,0.0,-0.0,-0.002,0.0,0.0,0.0,0.0,0.0,0.0,0.0,0.0,0.0,0.0,0.417,0.083,9.68,0.0,0.0,0.0,0.0,0.0,0.0,0.0,0.0,0.0
1576104082465418498,21231,1576104082464939594,,0.0,0.0,0.0,0.0,0.0,0.0,0.0,0.0,0.0,0.0,0.0,0.0,0.0,-0.002,-0.002,0.0,0.0,0.0,0.0,0.0,0.0,0.0,0.0,0.0,0.0,0.417,0.1,9.71,0.0,0.0,0.0,0.0,0.0,0.0,0.0,0.0,0.0
1576104082466362108,21232,1576104082465613126,,0.0,0.0,0.0,0.0,0.0,0.0,0.0,0.0,0.0,0.0,0.0,0.0,0.0,-0.002,-0.003,0.0,0.0,0.0,0.0,0.0,0.0,0.0,0.0,0.0,0.0,0.45,0.093,9.71,0.0,0.0,0.0,0.0,0.0,0.0,0.0,0.0,0.0
1576104082466384442,21233,1576104082465943813,,0.0,0.0,0.0,0.0,0.0,0.0,0.0,0.0,0.0,0.0,0.0,0.0,0.0,-0.0,0.0,0.0,0.0,0.0,0.0,0.0,0.0,0.0,0.0,0.0,0.0,0.453,0.09,9.7,0.0,0.0,0.0,0.0,0.0,0.0,0.0,0.0,0.0
1576104082466893311,21234,1576104082466478586,,0.0,0.0,0.0,0.0,0.0,0.0,0.0,0.0,0.0,0.0,0.0,0.0,0.0,-0.0,0.0,0.0,0.0,0.0,0.0,0.0,0.0,0.0,0.0,0.0,0.0,0.448,0.078,9.66,0.0,0.0,0.0,0.0,0.0,0.0,0.0,0.0,0.0
1576104082469266261,21235,1576104082468668937,,0.0,0.0,0.0,0.0,0.0,0.0,0.0,0.0,0.0,0.0,0.0,0.0,0.0,0.002,0.0,0.0,0.0,0.0,0.0,0.0,0.0,0.0,0.0,0.0,0.0,0.486,0.102,9.68,0.0,0.0,0.0,0.0,0.0,0.0,0.0,0.0,0.0
1576104082471733423,21236,1576104082470956087,,0.0,0.0,0.0,0.0,0.0,0.0,0.0,0.0,0.0,0.0,0.0,0.0,0.0,-0.002,-0.002,0.0,0.0,0.0,0.0,0.0,0.0,0.0,0.0,0.0,0.0,0.505,0.078,9.66,0.0,0.0,0.0,0.0,0.0,0.0,0.0,0.0,0.0
1576104082478392513,21237,1576104082477627277,,0.0,0.0,0.0,0.0,0.0,0.0,0.0,0.0,0.0,0.0,0.0,0.0,0.0,0.002,-0.002,0.0,0.0,0.0,0.0,0.0,0.0,0.0,0.0,0.0,0.0,0.565,0.074,9.71,0.0,0.0,0.0,0.0,0.0,0.0,0.0,0.0,0.0
1576104082478879960,21238,1576104082478021621,,0.0,0.0,0.0,0.0,0.0,0.0,0.0,0.0,0.0,0.0,0.0,0.0,0.0,0.001,0.0,0.0,0.0,0.0,0.0,0.0,0.0,0.0,0.0,0.0,0.0,0.606,0.088,9.7,0.0,0.0,0.0,0.0,0.0,0.0,0.0,0.0,0.0
1576104082481766510,21239,1576104082481044054,,0.0,0.0,0.0,0.0,0.0,0.0,0.0,0.0,0.0,0.0,0.0,0.0,0.0,-0.002,0.003,0.0,0.0,0.0,0.0,0.0,0.0,0.0,0.0,0.0,0.0,0.63,0.054,9.66,0.0,0.0,0.0,0.0,0.0,0.0,0.0,0.0,0.0
1576104082485039249,21240,1576104082484356880,,0.0,0.0,0.0,0.0,0.0,0.0,0.0,0.0,0.0,0.0,0.0,0.0,0.0,0.002,0.0,0.0,0.0,0.0,0.0,0.0,0.0,0.0,0.0,0.0,0.0,0.649,0.078,9.68,0.0,0.0,0.0,0.0,0.0,0.0,0.0,0.0,0.0
1576104082486269569,21241,1576104082485593557,,0.0,0.0,0.0,0.0,0.0,0.0,0.0,0.0,0.0,0.0,0.0,0.0,0.0,0.001,-0.001,0.0,0.0,0.0,0.0,0.0,0.0,0.0,0.0,0.0,0.0,0.651,0.117,9.72,0.0,0.0,0.0,0.0,0.0,0.0,0.0,0.0,0.0
1576104082491230323,21242,1576104082490298509,,0.0,0.0,0.0,0.0,0.0,0.0,0.0,0.0,0.0,0.0,0.0,0.0,0.0,0.001,0.001,-0.0,0.0,0.0,0.0,0.0,0.0,0.0,0.0,0.0,0.0,0.654,0.129,9.68,0.0,0.0,0.0,0.0,0.0,0.0,0.0,0.0,0.0
1576104082496380533,21243,1576104082495637178,,0.0,0.0,0.0,0.0,0.0,0.0,0.0,0.0,0.0,0.0,0.0,0.0,0.0,0.002,0.001,-0.0,0.0,0.0,0.0,0.0,0.0,0.0,0.0,0.0,0.0,0.623,0.138,9.69,0.0,0.0,0.0,0.0,0.0,0.0,0.0,0.0,0.0
1576104082500814586,21244,1576104082500175952,,0.0,0.0,0.0,0.0,0.0,0.0,0.0,0.0,0.0,0.0,0.0,0.0,0.0,0.002,0.0,-0.0,0.0,0.0,0.0,0.0,0.0,0.0,0.0,0.0,0.0,0.613,0.191,9.69,0.0,0.0,0.0,0.0,0.0,0.0,0.0,0.0,0.0
1576104082506659518,21245,1576104082505804300,,0.0,0.0,0.0,0.0,0.0,0.0,0.0,0.0,0.0,0.0,0.0,0.0,0.0,0.003,0.0,-0.0,0.0,0.0,0.0,0.0,0.0,0.0,0.0,0.0,0.0,0.57,0.177,9.67,0.0,0.0,0.0,0.0,0.0,0.0,0.0,0.0,0.0
1576104082510882830,21246,1576104082510028123,,0.0,0.0,0.0,0.0,0.0,0.0,0.0,0.0,0.0,0.0,0.0,0.0,0.0,0.001,0.001,-0.0,0.0,0.0,0.0,0.0,0.0,0.0,0.0,0.0,0.0,0.553,0.193,9.6,0.0,0.0,0.0,0.0,0.0,0.0,0.0,0.0,0.0
1576104082515261819,21247,1576104082514425992,,0.0,0.0,0.0,0.0,0.0,0.0,0.0,0.0,0.0,0.0,0.0,0.0,0.0,-0.0,-0.001,-0.0,0.0,0.0,0.0,0.0,0.0,0.0,0.0,0.0,0.0,0.529,0.174,9.64,0.0,0.0,0.0,0.0,0.0,0.0,0.0,0.0,0.0
1576104082515463845,21248,1576104082514867544,,0.0,0.0,0.0,0.0,0.0,0.0,0.0,0.0,0.0,0.0,0.0,0.0,0.0,-0.003,-0.001,-0.0,0.0,0.0,0.0,0.0,0.0,0.0,0.0,0.0,0.0,0.51,0.165,9.68,0.0,0.0,0.0,0.0,0.0,0.0,0.0,0.0,0.0
1576104082520650213,21249,1576104082519976139,,0.0,0.0,0.0,0.0,0.0,0.0,0.0,0.0,0.0,0.0,0.0,0.0,0.0,-0.002,-0.001,-0.0,0.0,0.0,0.0,0.0,0.0,0.0,0.0,0.0,0.0,0.512,0.162,9.69,0.0,0.0,0.0,0.0,0.0,0.0,0.0,0.0,0.0
1576104082524046378,21250,1576104082523337841,,0.0,0.0,0.0,0.0,0.0,0.0,0.0,0.0,0.0,0.0,0.0,0.0,0.0,-0.002,0.001,-0.0,0.0,0.0,0.0,0.0,0.0,0.0,0.0,0.0,0.0,0.508,0.143,9.69,0.0,0.0,0.0,0.0,0.0,0.0,0.0,0.0,0.0
1576104082525142659,21251,1576104082524445295,,0.0,0.0,0.0,0.0,0.0,0.0,0.0,0.0,0.0,0.0,0.0,0.0,0.0,-0.0,-0.001,-0.0,0.0,0.0,0.0,0.0,0.0,0.0,0.0,0.0,0.0,0.503,0.153,9.65,0.0,0.0,0.0,0.0,0.0,0.0,0.0,0.0,0.0
1576104082529592689,21252,1576104082528889894,,0.0,0.0,0.0,0.0,0.0,0.0,0.0,0.0,0.0,0.0,0.0,0.0,0.0,-0.0,-0.001,-0.02,0.0,0.0,0.0,0.0,0.0,0.0,0.0,0.0,0.0,0.429,0.155,9.7,0.0,0.0,0.0,0.0,0.0,0.0,0.0,0.0,0.0
1576104082534132543,21253,1576104082533535003,,0.0,0.0,0.0,0.0,0.0,0.0,0.0,0.0,0.0,0.0,0.0,0.0,0.0,-0.0,-0.001,-0.0,0.0,0.0,0.0,0.0,0.0,0.0,0.0,0.0,0.0,0.343,0.15,9.73,0.0,0.0,0.0,0.0,0.0,0.0,0.0,0.0,0.0
1576104082538423418,21254,1576104082537738084,,0.0,0.0,0.0,0.0,0.0,0.0,0.0,0.0,0.0,0.0,0.0,0.0,0.0,-0.002,0.0,-0.02,0.0,0.0,0.0,0.0,0.0,0.0,0.0,0.0,0.0,0.319,0.143,9.66,0.0,0.0,0.0,0.0,0.0,0.0,0.0,0.0,0.0
1576104082566285668,21255,1576104082565661191,,0.0,0.0,0.0,0.0,0.0,0.0,0.0,0.0,0.0,0.0,0.0,0.0,0.0,-0.003,0.0,-0.0,0.0,0.0,0.0,0.0,0.0,0.0,0.0,0.0,0.0,0.268,0.141,9.68,0.0,0.0,0.0,0.0,0.0,0.0,0.0,0.0,0.0
1576104082566730423,21256,1576104082566304445,,0.0,0.0,0.0,0.0,0.0,0.0,0.0,0.0,0.0,0.0,0.0,0.0,0.0,-0.003,0.0,-0.0,0.0,0.0,0.0,0.0,0.0,0.0,0.0,0.0,0.0,0.275,0.136,9.68,0.0,0.0,0.0,0.0,0.0,0.0,0.0,0.0,0.0
1576104082567170859,21257,1576104082566717624,,0.0,0.0,0.0,0.0,0.0,0.0,0.0,0.0,0.0,0.0,0.0,0.0,0.0,-0.003,0.0,-0.01,0.0,0.0,0.0,0.0,0.0,0.0,0.0,0.0,0.0,0.244,0.119,9.68,0.0,0.0,0.0,0.0,0.0,0.0,0.0,0.0,0.0
1576104082570122547,21258,1576104082569668054,,0.0,0.0,0.0,0.0,0.0,0.0,0.0,0.0,0.0,0.0,0.0,0.0,0.0,0.001,-0.005,-0.0,0.0,0.0,0.0,0.0,0.0,0.0,0.0,0.0,0.0,0.23,0.093,9.7,0.0,0.0,0.0,0.0,0.0,0.0,0.0,0.0,0.0
1576104082570556316,21259,1576104082570063114,,0.0,0.0,0.0,0.0,0.0,0.0,0.0,0.0,0.0,0.0,0.0,0.0,0.0,-0.002,-0.002,-0.0,0.0,0.0,0.0,0.0,0.0,0.0,0.0,0.0,0.0,0.225,0.098,9.69,0.0,0.0,0.0,0.0,0.0,0.0,0.0,0.0,0.0
1576104082571074278,21260,1576104082570466279,,0.0,0.0,0.0,0.0,0.0,0.0,0.0,0.0,0.0,0.0,0.0,0.0,0.0,-0.004,0.0,-0.0,0.0,0.0,0.0,0.0,0.0,0.0,0.0,0.0,0.0,0.242,0.129,9.69,0.0,0.0,0.0,0.0,0.0,0.0,0.0,0.0,0.0
1576104082571478200,21261,1576104082570967912,,0.0,0.0,0.0,0.0,0.0,0.0,0.0,0.0,0.0,0.0,0.0,0.0,0.0,0.001,-0.002,-0.0,0.0,0.0,0.0,0.0,0.0,0.0,0.0,0.0,0.0,0.271,0.117,9.7,0.0,0.0,0.0,0.0,0.0,0.0,0.0,0.0,0.0
1576104082572093888,21262,1576104082571608304,,0.0,0.0,0.0,0.0,0.0,0.0,0.0,0.0,0.0,0.0,0.0,0.0,0.0,-0.0,-0.002,-0.0,0.0,0.0,0.0,0.0,0.0,0.0,0.0,0.0,0.0,0.314,0.102,9.71,0.0,0.0,0.0,0.0,0.0,0.0,0.0,0.0,0.0
1576104082572487733,21263,1576104082572057485,,0.0,0.0,0.0,0.0,0.0,0.0,0.0,0.0,0.0,0.0,0.0,0.0,0.0,-0.0,-0.001,-0.0,0.0,0.0,0.0,0.0,0.0,0.0,0.0,0.0,0.0,0.326,0.11,9.69,0.0,0.0,0.0,0.0,0.0,0.0,0.0,0.0,0.0
1576104082574434213,21264,1576104082573260784,,0.0,0.0,0.0,0.0,0.0,0.0,0.0,0.0,0.0,0.0,0.0,0.0,0.0,0.001,-0.001,-0.0,0.0,0.0,0.0,0.0,0.0,0.0,0.0,0.0,0.0,0.326,0.1,9.67,0.0,0.0,0.0,0.0,0.0,0.0,0.0,0.0,0.0
1576104082574464540,21265,1576104082573598861,,0.0,0.0,0.0,0.0,0.0,0.0,0.0,0.0,0.0,0.0,0.0,0.0,0.0,-0.002,-0.001,-0.0,0.0,0.0,0.0,0.0,0.0,0.0,0.0,0.0,0.0,0.347,0.119,9.72,0.0,0.0,0.0,0.0,0.0,0.0,0.0,0.0,0.0
1576104082574544099,21266,1576104082573982715,,0.0,0.0,0.0,0.0,0.0,0.0,0.0,0.0,0.0,0.0,0.0,0.0,0.0,-0.002,-0.001,-0.0,0.0,0.0,0.0,0.0,0.0,0.0,0.0,0.0,0.0,0.378,0.124,9.73,0.0,0.0,0.0,0.0,0.0,0.0,0.0,0.0,0.0
1576104082577786093,21267,1576104082577354431,,0.0,0.0,0.0,0.0,0.0,0.0,0.0,0.0,0.0,0.0,0.0,0.0,0.0,0.003,-0.002,-0.0,0.0,0.0,0.0,0.0,0.0,0.0,0.0,0.0,0.0,0.41,0.155,9.7,0.0,0.0,0.0,0.0,0.0,0.0,0.0,0.0,0.0
1576104082580066700,21268,1576104082579592227,,0.0,0.0,0.0,0.0,0.0,0.0,0.0,0.0,0.0,0.0,0.0,0.0,0.0,-0.003,0.0,-0.0,0.0,0.0,0.0,0.0,0.0,0.0,0.0,0.0,0.0,0.393,0.174,9.66,0.0,0.0,0.0,0.0,0.0,0.0,0.0,0.0,0.0
1576104082583670745,21269,1576104082583073377,,0.0,0.0,0.0,0.0,0.0,0.0,0.0,0.0,0.0,0.0,0.0,0.0,0.0,-0.002,0.0,-0.0,0.0,0.0,0.0,0.0,0.0,0.0,0.0,0.0,0.0,0.414,0.169,9.67,0.0,0.0,0.0,0.0,0.0,0.0,0.0,0.0,0.0
1576104082584232164,21270,1576104082583612203,,0.0,0.0,0.0,0.0,0.0,0.0,0.0,0.0,0.0,0.0,0.0,0.0,0.0,-0.002,-0.001,-0.0,0.0,0.0,0.0,0.0,0.0,0.0,0.0,0.0,0.0,0.422,0.22,9.69,0.0,0.0,0.0,0.0,0.0,0.0,0.0,0.0,0.0
1576104082587154499,21271,1576104082586348295,,0.0,0.0,0.0,0.0,0.0,0.0,0.0,0.0,0.0,0.0,0.0,0.0,0.0,-0.0,-0.001,0.0,0.0,0.0,0.0,0.0,0.0,0.0,0.0,0.0,0.0,0.436,0.217,9.68,0.0,0.0,0.0,0.0,0.0,0.0,0.0,0.0,0.0
1576104082590227816,21272,1576104082589622497,,0.0,0.0,0.0,0.0,0.0,0.0,0.0,0.0,0.0,0.0,0.0,0.0,0.0,0.002,0.0,0.0,0.0,0.0,0.0,0.0,0.0,0.0,0.0,0.0,0.0,0.433,0.248,9.66,0.0,0.0,0.0,0.0,0.0,0.0,0.0,0.0,0.0
1576104082591348149,21273,1576104082590754747,,0.0,0.0,0.0,0.0,0.0,0.0,0.0,0.0,0.0,0.0,0.0,0.0,0.0,0.002,0.0,0.0,0.0,0.0,0.0,0.0,0.0,0.0,0.0,0.0,0.0,0.438,0.277,9.64,0.0,0.0,0.0,0.0,0.0,0.0,0.0,0.0,0.0
1576104082597055918,21274,1576104082596347332,,0.0,0.0,0.0,0.0,0.0,0.0,0.0,0.0,0.0,0.0,0.0,0.0,0.0,0.002,-0.001,0.0,0.0,0.0,0.0,0.0,0.0,0.0,0.0,0.0,0.0,0.453,0.313,9.65,0.0,0.0,0.0,0.0,0.0,0.0,0.0,0.0,0.0
1576104082600282210,21275,1576104082599577665,,0.0,0.0,0.0,0.0,0.0,0.0,0.0,0.0,0.0,0.0,0.0,0.0,0.0,-0.002,-0.001,0.0,0.0,0.0,0.0,0.0,0.0,0.0,0.0,0.0,0.0,0.481,0.301,9.65,0.0,0.0,0.0,0.0,0.0,0.0,0.0,0.0,0.0
1576104082604225978,21276,1576104082603527784,,0.0,0.0,0.0,0.0,0.0,0.0,0.0,0.0,0.0,0.0,0.0,0.0,0.0,-0.002,-0.002,0.0,0.0,0.0,0.0,0.0,0.0,0.0,0.0,0.0,0.0,0.515,0.325,9.74,0.0,0.0,0.0,0.0,0.0,0.0,0.0,0.0,0.0
1576104082606548929,21277,1576104082605792284,,0.0,0.0,0.0,0.0,0.0,0.0,0.0,0.0,0.0,0.0,0.0,0.0,0.0,-0.0,-0.001,0.0,0.0,0.0,0.0,0.0,0.0,0.0,0.0,0.0,0.0,0.508,0.299,9.69,0.0,0.0,0.0,0.0,0.0,0.0,0.0,0.0,0.0
1576104082609593893,21278,1576104082609046459,,0.0,0.0,0.0,0.0,0.0,0.0,0.0,0.0,0.0,0.0,0.0,0.0,0.0,0.001,-0.001,0.0,0.0,0.0,0.0,0.0,0.0,0.0,0.0,0.0,0.0,0.51,0.323,9.68,0.0,0.0,0.0,0.0,0.0,0.0,0.0,0.0,0.0
1576104082610711961,21279,1576104082610177993,,0.0,0.0,0.0,0.0,0.0,0.0,0.0,0.0,0.0,0.0,0.0,0.0,0.0,0.002,-0.001,0.0,0.0,0.0,0.0,0.0,0.0,0.0,0.0,0.0,0.0,0.517,0.313,9.69,0.0,0.0,0.0,0.0,0.0,0.0,0.0,0.0,0.0
1576104082616514450,21280,1576104082615710258,,0.0,0.0,0.0,0.0,0.0,0.0,0.0,0.0,0.0,0.0,0.0,0.0,0.0,-0.002,-0.002,0.0,0.0,0.0,0.0,0.0,0.0,0.0,0.0,0.0,0.0,0.615,0.265,9.68,0.0,0.0,0.0,0.0,0.0,0.0,0.0,0.0,0.0
1576104082620834714,21281,1576104082620093584,,0.0,0.0,0.0,0.0,0.0,0.0,0.0,0.0,0.0,0.0,0.0,0.0,0.0,-0.0,-0.003,0.0,0.0,0.0,0.0,0.0,0.0,0.0,0.0,0.0,0.0,0.639,0.215,9.66,0.0,0.0,0.0,0.0,0.0,0.0,0.0,0.0,0.0
1576104082621468094,21282,1576104082620681047,,0.0,0.0,0.0,0.0,0.0,0.0,0.0,0.0,0.0,0.0,0.0,0.0,0.0,-0.006,-0.001,0.0,0.0,0.0,0.0,0.0,0.0,0.0,0.0,0.0,0.0,0.635,0.189,9.65,0.0,0.0,0.0,0.0,0.0,0.0,0.0,0.0,0.0
1576104082625371016,21283,1576104082624616622,,0.0,0.0,0.0,0.0,0.0,0.0,0.0,0.0,0.0,0.0,0.0,0.0,0.0,-0.002,-0.005,0.0,0.0,0.0,0.0,0.0,0.0,0.0,0.0,0.0,0.0,0.606,0.148,9.7,0.0,0.0,0.0,0.0,0.0,0.0,0.0,0.0,0.0
1576104082628688530,21284,1576104082627942323,,0.0,0.0,0.0,0.0,0.0,0.0,0.0,0.0,0.0,0.0,0.0,0.0,0.0,-0.003,-0.002,-0.0,0.0,0.0,0.0,0.0,0.0,0.0,0.0,0.0,0.0,0.623,0.107,9.71,0.0,0.0,0.0,0.0,0.0,0.0,0.0,0.0,0.0
1576104082630898779,21285,1576104082630130529,,0.0,0.0,0.0,0.0,0.0,0.0,0.0,0.0,0.0,0.0,0.0,0.0,0.0,-0.0,-0.001,-0.0,0.0,0.0,0.0,0.0,0.0,0.0,0.0,0.0,0.0,0.608,0.105,9.7,0.0,0.0,0.0,0.0,0.0,0.0,0.0,0.0,0.0
1576104082633042576,21286,1576104082632333278,,0.0,0.0,0.0,0.0,0.0,0.0,0.0,0.0,0.0,0.0,0.0,0.0,0.0,-0.0,0.0,-0.0,0.0,0.0,0.0,0.0,0.0,0.0,0.0,0.0,0.0,0.599,0.078,9.73,0.0,0.0,0.0,0.0,0.0,0.0,0.0,0.0,0.0
1576104082636442758,21287,1576104082635665416,,0.0,0.0,0.0,0.0,0.0,0.0,0.0,0.0,0.0,0.0,0.0,0.0,0.0,-0.002,0.001,-0.0,0.0,0.0,0.0,0.0,0.0,0.0,0.0,0.0,0.0,0.596,0.033,9.73,0.0,0.0,0.0,0.0,0.0,0.0,0.0,0.0,0.0
1576104082639605261,21288,1576104082639053821,,0.0,0.0,0.0,0.0,0.0,0.0,0.0,0.0,0.0,0.0,0.0,0.0,0.0,-0.002,0.0,-0.0,0.0,0.0,0.0,0.0,0.0,0.0,0.0,0.0,0.0,0.582,-0.008,9.62,0.0,0.0,0.0,0.0,0.0,0.0,0.0,0.0,0.0
1576104082665000207,21289,1576104082664303541,,0.0,0.0,0.0,0.0,0.0,0.0,0.0,0.0,0.0,0.0,0.0,0.0,0.0,-0.003,-0.001,-0.0,0.0,0.0,0.0,0.0,0.0,0.0,0.0,0.0,0.0,0.577,-0.044,9.66,0.0,0.0,0.0,0.0,0.0,0.0,0.0,0.0,0.0
1576104082665663121,21290,1576104082665178298,,0.0,0.0,0.0,0.0,0.0,0.0,0.0,0.0,0.0,0.0,0.0,0.0,0.0,-0.005,-0.002,-0.0,0.0,0.0,0.0,0.0,0.0,0.0,0.0,0.0,0.0,0.56,-0.084,9.72,0.0,0.0,0.0,0.0,0.0,0.0,0.0,0.0,0.0
1576104082666173078,21291,1576104082665729045,,0.0,0.0,0.0,0.0,0.0,0.0,0.0,0.0,0.0,0.0,0.0,0.0,0.0,0.003,0.001,-0.01,0.0,0.0,0.0,0.0,0.0,0.0,0.0,0.0,0.0,0.544,-0.099,9.72,0.0,0.0,0.0,0.0,0.0,0.0,0.0,0.0,0.0
1576104082667582202,21292,1576104082666942119,,0.0,0.0,0.0,0.0,0.0,0.0,0.0,0.0,0.0,0.0,0.0,0.0,0.0,-0.002,0.001,-0.0,0.0,0.0,0.0,0.0,0.0,0.0,0.0,0.0,0.0,0.481,-0.082,9.65,0.0,0.0,0.0,0.0,0.0,0.0,0.0,0.0,0.0
1576104082668022120,21293,1576104082667607069,,0.0,0.0,0.0,0.0,0.0,0.0,0.0,0.0,0.0,0.0,0.0,0.0,0.0,0.001,0.003,-0.0,0.0,0.0,0.0,0.0,0.0,0.0,0.0,0.0,0.0,0.479,-0.01,9.67,0.0,0.0,0.0,0.0,0.0,0.0,0.0,0.0,0.0
1576104082668849409,21294,1576104082668243169,,0.0,0.0,0.0,0.0,0.0,0.0,0.0,0.0,0.0,0.0,0.0,0.0,0.0,0.002,0.001,-0.0,0.0,0.0,0.0,0.0,0.0,0.0,0.0,0.0,0.0,0.39,0.05,9.75,0.0,0.0,0.0,0.0,0.0,0.0,0.0,0.0,0.0
1576104082669510013,21295,1576104082668900012,,0.0,0.0,0.0,0.0,0.0,0.0,0.0,0.0,0.0,0.0,0.0,0.0,0.0,-0.0,0.004,-0.0,0.0,0.0,0.0,0.0,0.0,0.0,0.0,0.0,0.0,0.383,0.088,9.73,0.0,0.0,0.0,0.0,0.0,0.0,0.0,0.0,0.0
1576104082671808679,21296,1576104082671111583,,0.0,0.0,0.0,0.0,0.0,0.0,0.0,0.0,0.0,0.0,0.0,0.0,0.0,0.001,0.005,-0.01,0.0,0.0,0.0,0.0,0.0,0.0,0.0,0.0,0.0,0.386,0.131,9.7,0.0,0.0,0.0,0.0,0.0,0.0,0.0,0.0,0.0
1576104082671852015,21297,1576104082671423673,,0.0,0.0,0.0,0.0,0.0,0.0,0.0,0.0,0.0,0.0,0.0,0.0,0.0,-0.0,0.003,-0.0,0.0,0.0,0.0,0.0,0.0,0.0,0.0,0.0,0.0,0.378,0.172,9.69,0.0,0.0,0.0,0.0,0.0,0.0,0.0,0.0,0.0
1576104082672594152,21298,1576104082672172069,,0.0,0.0,0.0,0.0,0.0,0.0,0.0,0.0,0.0,0.0,0.0,0.0,0.0,0.002,0.004,-0.0,0.0,0.0,0.0,0.0,0.0,0.0,0.0,0.0,0.0,0.4,0.217,9.75,0.0,0.0,0.0,0.0,0.0,0.0,0.0,0.0,0.0
1576104082678026399,21299,1576104082677641153,,0.0,0.0,0.0,0.0,0.0,0.0,0.0,0.0,0.0,0.0,0.0,0.0,0.0,0.005,0.001,-0.0,0.0,0.0,0.0,0.0,0.0,0.0,0.0,0.0,0.0,0.357,0.265,9.76,0.0,0.0,0.0,0.0,0.0,0.0,0.0,0.0,0.0
1576104082679603343,21300,1576104082679161787,,0.0,0.0,0.0,0.0,0.0,0.0,0.0,0.0,0.0,0.0,0.0,0.0,0.0,0.007,0.005,-0.01,0.0,0.0,0.0,0.0,0.0,0.0,0.0,0.0,0.0,0.369,0.327,9.67,0.0,0.0,0.0,0.0,0.0,0.0,0.0,0.0,0.0
1576104082680681342,21301,1576104082680125713,,0.0,0.0,0.0,0.0,0.0,0.0,0.0,0.0,0.0,0.0,0.0,0.0,0.0,0.009,0.005,-0.0,0.0,0.0,0.0,0.0,0.0,0.0,0.0,0.0,0.0,0.393,0.351,9.64,0.0,0.0,0.0,0.0,0.0,0.0,0.0,0.0,0.0
1576104082684126029,21302,1576104082683399915,,0.0,0.0,0.0,0.0,0.0,0.0,0.0,0.0,0.0,0.0,0.0,0.0,0.0,0.002,0.004,-0.0,0.0,0.0,0.0,0.0,0.0,0.0,0.0,0.0,0.0,0.4,0.361,9.62,0.0,0.0,0.0,0.0,0.0,0.0,0.0,0.0,0.0
1576104082687394141,21303,1576104082686751127,,0.0,0.0,0.0,0.0,0.0,0.0,0.0,0.0,0.0,0.0,0.0,0.0,0.0,0.002,0.001,-0.01,0.0,0.0,0.0,0.0,0.0,0.0,0.0,0.0,0.0,0.39,0.435,9.74,0.0,0.0,0.0,0.0,0.0,0.0,0.0,0.0,0.0
1576104082690804360,21304,1576104082690114736,,0.0,0.0,0.0,0.0,0.0,0.0,0.0,0.0,0.0,0.0,0.0,0.0,0.0,0.001,0.004,-0.0,0.0,0.0,0.0,0.0,0.0,0.0,0.0,0.0,0.0,0.398,0.502,9.75,0.0,0.0,0.0,0.0,0.0,0.0,0.0,0.0,0.0
1576104082694345274,21305,1576104082693653106,,0.0,0.0,0.0,0.0,0.0,0.0,0.0,0.0,0.0,0.0,0.0,0.0,0.0,-0.0,0.005,-0.0,0.0,0.0,0.0,0.0,0.0,0.0,0.0,0.0,0.0,0.381,0.495,9.67,0.0,0.0,0.0,0.0,0.0,0.0,0.0,0.0,0.0
1576104082695405655,21306,1576104082694693565,,0.0,0.0,0.0,0.0,0.0,0.0,0.0,0.0,0.0,0.0,0.0,0.0,0.0,-0.003,0.006,-0.0,0.0,0.0,0.0,0.0,0.0,0.0,0.0,0.0,0.0,0.388,0.524,9.63,0.0,0.0,0.0,0.0,0.0,0.0,0.0,0.0,0.0
1576104082701636239,21307,1576104082700917959,,0.0,0.0,0.0,0.0,0.0,0.0,0.0,0.0,0.0,0.0,0.0,0.0,0.0,0.001,0.006,-0.0,0.0,0.0,0.0,0.0,0.0,0.0,0.0,0.0,0.0,0.41,0.557,9.64,0.0,0.0,0.0,0.0,0.0,0.0,0.0,0.0,0.0
1576104082702744837,21308,1576104082702032327,,0.0,0.0,0.0,0.0,0.0,0.0,0.0,0.0,0.0,0.0,0.0,0.0,0.0,0.001,0.003,-0.0,0.0,0.0,0.0,0.0,0.0,0.0,0.0,0.0,0.0,0.429,0.552,9.64,0.0,0.0,0.0,0.0,0.0,0.0,0.0,0.0,0.0
1576104082708537751,21309,1576104082707834720,,0.0,0.0,0.0,0.0,0.0,0.0,0.0,0.0,0.0,0.0,0.0,0.0,0.0,-0.008,0.005,-0.01,0.0,0.0,0.0,0.0,0.0,0.0,0.0,0.0,0.0,0.457,0.54,9.62,0.0,0.0,0.0,0.0,0.0,0.0,0.0,0.0,0.0
1576104082712425164,21310,1576104082711934566,,0.0,0.0,0.0,0.0,0.0,0.0,0.0,0.0,0.0,0.0,0.0,0.0,0.0,-0.002,0.001,-0.0,0.0,0.0,0.0,0.0,0.0,0.0,0.0,0.0,0.0,0.462,0.488,9.65,0.0,0.0,0.0,0.0,0.0,0.0,0.0,0.0,0.0
1576104082715843870,21311,1576104082715171098,,0.0,0.0,0.0,0.0,0.0,0.0,0.0,0.0,0.0,0.0,0.0,0.0,0.0,-0.003,0.0,-0.0,0.0,0.0,0.0,0.0,0.0,0.0,0.0,0.0,0.0,0.467,0.473,9.69,0.0,0.0,0.0,0.0,0.0,0.0,0.0,0.0,0.0
1576104082718062226,21312,1576104082717391252,,0.0,0.0,0.0,0.0,0.0,0.0,0.0,0.0,0.0,0.0,0.0,0.0,0.0,-0.002,0.001,-0.01,0.0,0.0,0.0,0.0,0.0,0.0,0.0,0.0,0.0,0.496,0.433,9.74,0.0,0.0,0.0,0.0,0.0,0.0,0.0,0.0,0.0
1576104082719131072,21313,1576104082718460321,,0.0,0.0,0.0,0.0,0.0,0.0,0.0,0.0,0.0,0.0,0.0,0.0,0.0,-0.0,0.0,-0.0,0.0,0.0,0.0,0.0,0.0,0.0,0.0,0.0,0.0,0.51,0.38,9.72,0.0,0.0,0.0,0.0,0.0,0.0,0.0,0.0,0.0
1576104082721529201,21314,1576104082720842123,,0.0,0.0,0.0,0.0,0.0,0.0,0.0,0.0,0.0,0.0,0.0,0.0,0.0,-0.0,0.001,-0.0,0.0,0.0,0.0,0.0,0.0,0.0,0.0,0.0,0.0,0.52,0.325,9.6,0.0,0.0,0.0,0.0,0.0,0.0,0.0,0.0,0.0
1576104082726345198,21315,1576104082725677728,,0.0,0.0,0.0,0.0,0.0,0.0,0.0,0.0,0.0,0.0,0.0,0.0,0.0,-0.003,0.003,-0.0,0.0,0.0,0.0,0.0,0.0,0.0,0.0,0.0,0.0,0.544,0.282,9.64,0.0,0.0,0.0,0.0,0.0,0.0,0.0,0.0,0.0
1576104082728099873,21316,1576104082727396249,,0.0,0.0,0.0,0.0,0.0,0.0,0.0,0.0,0.0,0.0,0.0,0.0,0.0,-0.003,-0.002,-0.0,0.0,0.0,0.0,0.0,0.0,0.0,0.0,0.0,0.0,0.541,0.21,9.61,0.0,0.0,0.0,0.0,0.0,0.0,0.0,0.0,0.0
1576104082733090868,21317,1576104082732036113,,0.0,0.0,0.0,0.0,0.0,0.0,0.0,0.0,0.0,0.0,0.0,0.0,0.0,-0.006,-0.002,-0.01,0.0,0.0,0.0,0.0,0.0,0.0,0.0,0.0,0.0,0.541,0.16,9.65,0.0,0.0,0.0,0.0,0.0,0.0,0.0,0.0,0.0
1576104082734848780,21318,1576104082734176158,,0.0,0.0,0.0,0.0,0.0,0.0,0.0,0.0,0.0,0.0,0.0,0.0,0.0,-0.009,0.0,-0.0,0.0,0.0,0.0,0.0,0.0,0.0,0.0,0.0,0.0,0.524,0.054,9.74,0.0,0.0,0.0,0.0,0.0,0.0,0.0,0.0,0.0
1576104082735971172,21319,1576104082735336780,,0.0,0.0,0.0,0.0,0.0,0.0,0.0,0.0,0.0,0.0,0.0,0.0,0.0,-0.002,0.0,-0.0,0.0,0.0,0.0,0.0,0.0,0.0,0.0,0.0,0.0,0.498,-0.008,9.73,0.0,0.0,0.0,0.0,0.0,0.0,0.0,0.0,0.0
1576104082741796059,21320,1576104082741053581,,0.0,0.0,0.0,0.0,0.0,0.0,0.0,0.0,0.0,0.0,0.0,0.0,0.0,-0.005,0.003,-0.0,0.0,0.0,0.0,0.0,0.0,0.0,0.0,0.0,0.0,0.41,-0.08,9.84,0.0,0.0,0.0,0.0,0.0,0.0,0.0,0.0,0.0
1576104082767685888,21321,1576104082766770124,,0.0,0.0,0.0,0.0,0.0,0.0,0.0,0.0,0.0,0.0,0.0,0.0,0.0,-0.004,0.001,-0.0,0.0,0.0,0.0,0.0,0.0,0.0,0.0,0.0,0.0,0.371,-0.101,9.8,0.0,0.0,0.0,0.0,0.0,0.0,0.0,0.0,0.0
1576104082770804107,21322,1576104082770008563,,0.0,0.0,0.0,0.0,0.0,0.0,0.0,0.0,0.0,0.0,0.0,0.0,0.0,-0.0,0.003,-0.0,0.0,0.0,0.0,0.0,0.0,0.0,0.0,0.0,0.0,0.333,-0.106,9.74,0.0,0.0,0.0,0.0,0.0,0.0,0.0,0.0,0.0
1576104082771666485,21323,1576104082770433187,,0.0,0.0,0.0,0.0,0.0,0.0,0.0,0.0,0.0,0.0,0.0,0.0,0.0,0.001,0.004,-0.0,0.0,0.0,0.0,0.0,0.0,0.0,0.0,0.0,0.0,0.287,-0.135,9.69,0.0,0.0,0.0,0.0,0.0,0.0,0.0,0.0,0.0
1576104082771701952,21324,1576104082771180391,,0.0,0.0,0.0,0.0,0.0,0.0,0.0,0.0,0.0,0.0,0.0,0.0,0.0,0.002,0.003,-0.0,0.0,0.0,0.0,0.0,0.0,0.0,0.0,0.0,0.0,0.196,-0.149,9.57,0.0,0.0,0.0,0.0,0.0,0.0,0.0,0.0,0.0
1576104082772262903,21325,1576104082771830558,,0.0,0.0,0.0,0.0,0.0,0.0,0.0,0.0,0.0,0.0,0.0,0.0,0.0,0.001,0.003,-0.0,0.0,0.0,0.0,0.0,0.0,0.0,0.0,0.0,0.0,0.161,-0.147,9.65,0.0,0.0,0.0,0.0,0.0,0.0,0.0,0.0,0.0
1576104082772703932,21326,1576104082772373437,,0.0,0.0,0.0,0.0,0.0,0.0,0.0,0.0,0.0,0.0,0.0,0.0,0.0,0.001,0.0,0.0,0.0,0.0,0.0,0.0,0.0,0.0,0.0,0.0,0.0,0.201,-0.18,9.7,0.0,0.0,0.0,0.0,0.0,0.0,0.0,0.0,0.0
1576104082773548373,21327,1576104082772935628,,0.0,0.0,0.0,0.0,0.0,0.0,0.0,0.0,0.0,0.0,0.0,0.0,0.0,0.003,-0.001,0.0,0.0,0.0,0.0,0.0,0.0,0.0,0.0,0.0,0.0,0.218,-0.197,9.7,0.0,0.0,0.0,0.0,0.0,0.0,0.0,0.0,0.0
1576104082774063680,21328,1576104082773374557,,0.0,0.0,0.0,0.0,0.0,0.0,0.0,0.0,0.0,0.0,0.0,0.0,0.0,0.006,-0.001,0.0,0.0,0.0,0.0,0.0,0.0,0.0,0.0,0.0,0.0,0.259,-0.206,9.78,0.0,0.0,0.0,0.0,0.0,0.0,0.0,0.0,0.0
1576104082774316691,21329,1576104082773757934,,0.0,0.0,0.0,0.0,0.0,0.0,0.0,0.0,0.0,0.0,0.0,0.0,0.0,0.003,0.0,0.0,0.0,0.0,0.0,0.0,0.0,0.0,0.0,0.0,0.0,0.321,-0.209,9.76,0.0,0.0,0.0,0.0,0.0,0.0,0.0,0.0,0.0
1576104082774756343,21330,1576104082774293899,,0.0,0.0,0.0,0.0,0.0,0.0,0.0,0.0,0.0,0.0,0.0,0.0,0.0,0.005,-0.002,0.0,0.0,0.0,0.0,0.0,0.0,0.0,0.0,0.0,0.0,0.407,-0.195,9.72,0.0,0.0,0.0,0.0,0.0,0.0,0.0,0.0,0.0
1576104082775227020,21331,1576104082774779796,,0.0,0.0,0.0,0.0,0.0,0.0,0.0,0.0,0.0,0.0,0.0,0.0,0.0,0.005,-0.001,0.0,0.0,0.0,0.0,0.0,0.0,0.0,0.0,0.0,0.0,0.426,-0.144,9.77,0.0,0.0,0.0,0.0,0.0,0.0,0.0,0.0,0.0
1576104082775897402,21332,1576104082775250434,,0.0,0.0,0.0,0.0,0.0,0.0,0.0,0.0,0.0,0.0,0.0,0.0,0.0,0.001,0.0,0.0,0.0,0.0,0.0,0.0,0.0,0.0,0.0,0.0,0.0,0.436,-0.111,9.77,0.0,0.0,0.0,0.0,0.0,0.0,0.0,0.0,0.0
1576104082775988882,21333,1576104082775574684,,0.0,0.0,0.0,0.0,0.0,0.0,0.0,0.0,0.0,0.0,0.0,0.0,0.0,0.003,0.001,0.0,0.0,0.0,0.0,0.0,0.0,0.0,0.0,0.0,0.0,0.438,-0.08,9.67,0.0,0.0,0.0,0.0,0.0,0.0,0.0,0.0,0.0
1576104082776723831,21334,1576104082776400089,,0.0,0.0,0.0,0.0,0.0,0.0,0.0,0.0,0.0,0.0,0.0,0.0,0.0,0.003,0.0,0.0,0.0,0.0,0.0,0.0,0.0,0.0,0.0,0.0,0.0,0.419,-0.02,9.65,0.0,0.0,0.0,0.0,0.0,0.0,0.0,0.0,0.0
1576104082779088506,21335,1576104082778635740,,0.0,0.0,0.0,0.0,0.0,0.0,0.0,0.0,0.0,0.0,0.0,0.0,0.0,0.002,0.004,0.0,0.0,0.0,0.0,0.0,0.0,0.0,0.0,0.0,0.0,0.431,0.035,9.66,0.0,0.0,0.0,0.0,0.0,0.0,0.0,0.0,0.0
1576104082782162942,21336,1576104082781833887,,0.0,0.0,0.0,0.0,0.0,0.0,0.0,0.0,0.0,0.0,0.0,0.0,0.0,0.005,-0.001,0.0,0.0,0.0,0.0,0.0,0.0,0.0,0.0,0.0,0.0,0.455,0.081,9.67,0.0,0.0,0.0,0.0,0.0,0.0,0.0,0.0,0.0
1576104082783590234,21337,1576104082783128261,,0.0,0.0,0.0,0.0,0.0,0.0,0.0,0.0,0.0,0.0,0.0,0.0,0.0,0.001,0.0,0.0,0.0,0.0,0.0,0.0,0.0,0.0,0.0,0.0,0.0,0.491,0.112,9.69,0.0,0.0,0.0,0.0,0.0,0.0,0.0,0.0,0.0
1576104082788393620,21338,1576104082787838459,,0.0,0.0,0.0,0.0,0.0,0.0,0.0,0.0,0.0,0.0,0.0,0.0,0.0,0.006,-0.001,0.0,0.0,0.0,0.0,0.0,0.0,0.0,0.0,0.0,0.0,0.479,0.181,9.77,0.0,0.0,0.0,0.0,0.0,0.0,0.0,0.0,0.0
1576104082790474721,21339,1576104082790016174,,0.0,0.0,0.0,0.0,0.0,0.0,0.0,0.0,0.0,0.0,0.0,0.0,0.0,0.007,0.003,0.0,0.0,0.0,0.0,0.0,0.0,0.0,0.0,0.0,0.0,0.445,0.239,9.72,0.0,0.0,0.0,0.0,0.0,0.0,0.0,0.0,0.0
1576104082793909835,21340,1576104082793405771,,0.0,0.0,0.0,0.0,0.0,0.0,0.0,0.0,0.0,0.0,0.0,0.0,0.0,0.006,0.0,0.0,0.0,0.0,0.0,0.0,0.0,0.0,0.0,0.0,0.0,0.46,0.256,9.63,0.0,0.0,0.0,0.0,0.0,0.0,0.0,0.0,0.0
1576104082797304277,21341,1576104082796698331,,0.0,0.0,0.0,0.0,0.0,0.0,0.0,0.0,0.0,0.0,0.0,0.0,0.0,0.001,0.001,-0.0,0.0,0.0,0.0,0.0,0.0,0.0,0.0,0.0,0.0,0.398,0.287,9.58,0.0,0.0,0.0,0.0,0.0,0.0,0.0,0.0,0.0
1576104082800679238,21342,1576104082800074100,,0.0,0.0,0.0,0.0,0.0,0.0,0.0,0.0,0.0,0.0,0.0,0.0,0.0,-0.0,0.0,-0.0,0.0,0.0,0.0,0.0,0.0,0.0,0.0,0.0,0.0,0.374,0.311,9.66,0.0,0.0,0.0,0.0,0.0,0.0,0.0,0.0,0.0
1576104082803050501,21343,1576104082802445888,,0.0,0.0,0.0,0.0,0.0,0.0,0.0,0.0,0.0,0.0,0.0,0.0,0.0,0.001,0.0,-0.0,0.0,0.0,0.0,0.0,0.0,0.0,0.0,0.0,0.0,0.417,0.289,9.6,0.0,0.0,0.0,0.0,0.0,0.0,0.0,0.0,0.0
1576104082805160762,21344,1576104082804785013,,0.0,0.0,0.0,0.0,0.0,0.0,0.0,0.0,0.0,0.0,0.0,0.0,0.0,-0.002,-0.002,-0.0,0.0,0.0,0.0,0.0,0.0,0.0,0.0,0.0,0.0,0.448,0.248,9.62,0.0,0.0,0.0,0.0,0.0,0.0,0.0,0.0,0.0
1576104082807564133,21345,1576104082806957483,,0.0,0.0,0.0,0.0,0.0,0.0,0.0,0.0,0.0,0.0,0.0,0.0,0.0,-0.002,-0.003,-0.0,0.0,0.0,0.0,0.0,0.0,0.0,0.0,0.0,0.0,0.479,0.222,9.63,0.0,0.0,0.0,0.0,0.0,0.0,0.0,0.0,0.0
1576104082810826834,21346,1576104082810264587,,0.0,0.0,0.0,0.0,0.0,0.0,0.0,0.0,0.0,0.0,0.0,0.0,0.0,-0.004,-0.002,-0.0,0.0,0.0,0.0,0.0,0.0,0.0,0.0,0.0,0.0,0.477,0.196,9.69,0.0,0.0,0.0,0.0,0.0,0.0,0.0,0.0,0.0
1576104082813071181,21347,1576104082812477350,,0.0,0.0,0.0,0.0,0.0,0.0,0.0,0.0,0.0,0.0,0.0,0.0,0.0,-0.006,0.003,-0.0,0.0,0.0,0.0,0.0,0.0,0.0,0.0,0.0,0.0,0.46,0.191,9.68,0.0,0.0,0.0,0.0,0.0,0.0,0.0,0.0,0.0
1576104082818910617,21348,1576104082818255424,,0.0,0.0,0.0,0.0,0.0,0.0,0.0,0.0,0.0,0.0,0.0,0.0,0.0,-0.003,0.001,-0.01,0.0,0.0,0.0,0.0,0.0,0.0,0.0,0.0,0.0,0.422,0.153,9.62,0.0,0.0,0.0,0.0,0.0,0.0,0.0,0.0,0.0
1576104082819838971,21349,1576104082819278240,,0.0,0.0,0.0,0.0,0.0,0.0,0.0,0.0,0.0,0.0,0.0,0.0,0.0,-0.0,0.0,-0.0,0.0,0.0,0.0,0.0,0.0,0.0,0.0,0.0,0.0,0.424,0.112,9.71,0.0,0.0,0.0,0.0,0.0,0.0,0.0,0.0,0.0
1576104082824345234,21350,1576104082823764324,,0.0,0.0,0.0,0.0,0.0,0.0,0.0,0.0,0.0,0.0,0.0,0.0,0.0,-0.003,-0.001,-0.0,0.0,0.0,0.0,0.0,0.0,0.0,0.0,0.0,0.0,0.481,0.066,9.58,0.0,0.0,0.0,0.0,0.0,0.0,0.0,0.0,0.0
1576104082828532202,21351,1576104082828038215,,0.0,0.0,0.0,0.0,0.0,0.0,0.0,0.0,0.0,0.0,0.0,0.0,0.0,-0.006,0.001,-0.01,0.0,0.0,0.0,0.0,0.0,0.0,0.0,0.0,0.0,0.486,0.033,9.57,0.0,0.0,0.0,0.0,0.0,0.0,0.0,0.0,0.0
1576104082829780766,21352,1576104082829102516,,0.0,0.0,0.0,0.0,0.0,0.0,0.0,0.0,0.0,0.0,0.0,0.0,0.0,-0.008,0.001,-0.0,0.0,0.0,0.0,0.0,0.0,0.0,0.0,0.0,0.0,0.465,0.004,9.64,0.0,0.0,0.0,0.0,0.0,0.0,0.0,0.0,0.0
1576104082831969857,21353,1576104082831343173,,0.0,0.0,0.0,0.0,0.0,0.0,0.0,0.0,0.0,0.0,0.0,0.0,0.0,-0.004,0.0,-0.0,0.0,0.0,0.0,0.0,0.0,0.0,0.0,0.0,0.0,0.436,-0.039,9.61,0.0,0.0,0.0,0.0,0.0,0.0,0.0,0.0,0.0
1576104082834208148,21354,1576104082833556652,,0.0,0.0,0.0,0.0,0.0,0.0,0.0,0.0,0.0,0.0,0.0,0.0,0.0,-0.004,0.001,-0.0,0.0,0.0,0.0,0.0,0.0,0.0,0.0,0.0,0.0,0.395,-0.092,9.64,0.0,0.0,0.0,0.0,0.0,0.0,0.0,0.0,0.0
1576104082840194133,21355,1576104082839325189,,0.0,0.0,0.0,0.0,0.0,0.0,0.0,0.0,0.0,0.0,0.0,0.0,0.0,0.001,0.001,-0.0,0.0,0.0,0.0,0.0,0.0,0.0,0.0,0.0,0.0,0.326,-0.137,9.59,0.0,0.0,0.0,0.0,0.0,0.0,0.0,0.0,0.0
1576104082843213810,21356,1576104082842478513,,0.0,0.0,0.0,0.0,0.0,0.0,0.0,0.0,0.0,0.0,0.0,0.0,0.0,-0.002,0.0,-0.0,0.0,0.0,0.0,0.0,0.0,0.0,0.0,0.0,0.0,0.314,-0.151,9.68,0.0,0.0,0.0,0.0,0.0,0.0,0.0,0.0,0.0
1576104082872990754,21357,1576104082871762037,,0.0,0.0,0.0,0.0,0.0,0.0,0.0,0.0,0.0,0.0,0.0,0.0,0.0,-0.002,0.001,-0.0,0.0,0.0,0.0,0.0,0.0,0.0,0.0,0.0,0.0,0.302,-0.209,9.58,0.0,0.0,0.0,0.0,0.0,0.0,0.0,0.0,0.0
1576104082873033453,21358,1576104082872401952,,0.0,0.0,0.0,0.0,0.0,0.0,0.0,0.0,0.0,0.0,0.0,0.0,0.0,-0.006,-0.001,-0.0,0.0,0.0,0.0,0.0,0.0,0.0,0.0,0.0,0.0,0.259,-0.233,9.74,0.0,0.0,0.0,0.0,0.0,0.0,0.0,0.0,0.0
1576104082877559509,21359,1576104082877161026,,0.0,0.0,0.0,0.0,0.0,0.0,0.0,0.0,0.0,0.0,0.0,0.0,0.0,-0.005,-0.001,-0.0,0.0,0.0,0.0,0.0,0.0,0.0,0.0,0.0,0.0,0.194,-0.223,9.88,0.0,0.0,0.0,0.0,0.0,0.0,0.0,0.0,0.0
1576104082878576465,21360,1576104082877651691,,0.0,0.0,0.0,0.0,0.0,0.0,0.0,0.0,0.0,0.0,0.0,0.0,0.0,-0.005,0.0,-0.0,0.0,0.0,0.0,0.0,0.0,0.0,0.0,0.0,0.0,0.163,-0.25,9.78,0.0,0.0,0.0,0.0,0.0,0.0,0.0,0.0,0.0
1576104082879137745,21361,1576104082877954721,,0.0,0.0,0.0,0.0,0.0,0.0,0.0,0.0,0.0,0.0,0.0,0.0,0.0,-0.003,0.0,-0.0,0.0,0.0,0.0,0.0,0.0,0.0,0.0,0.0,0.0,0.177,-0.281,9.76,0.0,0.0,0.0,0.0,0.0,0.0,0.0,0.0,0.0
1576104082879555533,21362,1576104082878315687,,0.0,0.0,0.0,0.0,0.0,0.0,0.0,0.0,0.0,0.0,0.0,0.0,0.0,-0.003,-0.002,-0.0,0.0,0.0,0.0,0.0,0.0,0.0,0.0,0.0,0.0,0.314,-0.329,9.8,0.0,0.0,0.0,0.0,0.0,0.0,0.0,0.0,0.0
1576104082879586708,21363,1576104082878738403,,0.0,0.0,0.0,0.0,0.0,0.0,0.0,0.0,0.0,0.0,0.0,0.0,0.0,-0.004,-0.001,0.0,0.0,0.0,0.0,0.0,0.0,0.0,0.0,0.0,0.0,0.378,-0.369,9.82,0.0,0.0,0.0,0.0,0.0,0.0,0.0,0.0,0.0
1576104082879712578,21364,1576104082879113912,,0.0,0.0,0.0,0.0,0.0,0.0,0.0,0.0,0.0,0.0,0.0,0.0,0.0,-0.004,-0.003,0.0,0.0,0.0,0.0,0.0,0.0,0.0,0.0,0.0,0.0,0.414,-0.362,9.96,0.0,0.0,0.0,0.0,0.0,0.0,0.0,0.0,0.0
1576104082880059305,21365,1576104082879694938,,0.0,0.0,0.0,0.0,0.0,0.0,0.0,0.0,0.0,0.0,0.0,0.0,0.0,-0.0,0.0,-0.0,0.0,0.0,0.0,0.0,0.0,0.0,0.0,0.0,0.0,0.498,-0.36,9.68,0.0,0.0,0.0,0.0,0.0,0.0,0.0,0.0,0.0
1576104082881131460,21366,1576104082880793571,,0.0,0.0,0.0,0.0,0.0,0.0,0.0,0.0,0.0,0.0,0.0,0.0,0.0,0.005,0.004,-0.0,0.0,0.0,0.0,0.0,0.0,0.0,0.0,0.0,0.0,0.515,-0.333,9.47,0.0,0.0,0.0,0.0,0.0,0.0,0.0,0.0,0.0
1576104082882848915,21367,1576104082882216215,,0.0,0.0,0.0,0.0,0.0,0.0,0.0,0.0,0.0,0.0,0.0,0.0,0.0,0.003,-0.002,-0.0,0.0,0.0,0.0,0.0,0.0,0.0,0.0,0.0,0.0,0.546,-0.264,9.61,0.0,0.0,0.0,0.0,0.0,0.0,0.0,0.0,0.0
1576104082886902721,21368,1576104082886246204,,0.0,0.0,0.0,0.0,0.0,0.0,0.0,0.0,0.0,0.0,0.0,0.0,0.0,0.002,-0.007,-0.0,0.0,0.0,0.0,0.0,0.0,0.0,0.0,0.0,0.0,0.685,-0.106,9.94,0.0,0.0,0.0,0.0,0.0,0.0,0.0,0.0,0.0
1576104082890424797,21369,1576104082889576673,,0.0,0.0,0.0,0.0,0.0,0.0,0.0,0.0,0.0,0.0,0.0,0.0,0.0,0.009,-0.001,-0.0,0.0,0.0,0.0,0.0,0.0,0.0,0.0,0.0,0.0,0.69,-0.015,9.86,0.0,0.0,0.0,0.0,0.0,0.0,0.0,0.0,0.0
1576104082892265155,21370,1576104082891524314,,0.0,0.0,0.0,0.0,0.0,0.0,0.0,0.0,0.0,0.0,0.0,0.0,0.0,0.011,0.006,-0.0,0.0,0.0,0.0,0.0,0.0,0.0,0.0,0.0,0.0,0.654,0.05,9.65,0.0,0.0,0.0,0.0,0.0,0.0,0.0,0.0,0.0
1576104082894918004,21371,1576104082894244670,,0.0,0.0,0.0,0.0,0.0,0.0,0.0,0.0,0.0,0.0,0.0,0.0,0.0,0.005,0.006,-0.0,0.0,0.0,0.0,0.0,0.0,0.0,0.0,0.0,0.0,0.625,0.122,9.57,0.0,0.0,0.0,0.0,0.0,0.0,0.0,0.0,0.0
1576104082898314957,21372,1576104082897779226,,0.0,0.0,0.0,0.0,0.0,0.0,0.0,0.0,0.0,0.0,0.0,0.0,0.0,0.007,0.001,-0.01,0.0,0.0,0.0,0.0,0.0,0.0,0.0,0.0,0.0,0.544,0.246,9.8,0.0,0.0,0.0,0.0,0.0,0.0,0.0,0.0,0.0
1576104082901619915,21373,1576104082901113271,,0.0,0.0,0.0,0.0,0.0,0.0,0.0,0.0,0.0,0.0,0.0,0.0,0.0,0.003,-0.002,-0.0,0.0,0.0,0.0,0.0,0.0,0.0,0.0,0.0,0.0,0.429,0.27,9.79,0.0,0.0,0.0,0.0,0.0,0.0,0.0,0.0,0.0
1576104082904181217,21374,1576104082903672695,,0.0,0.0,0.0,0.0,0.0,0.0,0.0,0.0,0.0,0.0,0.0,0.0,0.0,0.002,0.003,-0.0,0.0,0.0,0.0,0.0,0.0,0.0,0.0,0.0,0.0,0.431,0.253,9.7,0.0,0.0,0.0,0.0,0.0,0.0,0.0,0.0,0.0
1576104082913093933,21375,1576104082912374496,,0.0,0.0,0.0,0.0,0.0,0.0,0.0,0.0,0.0,0.0,0.0,0.0,0.0,0.005,0.0,-0.01,0.0,0.0,0.0,0.0,0.0,0.0,0.0,0.0,0.0,0.544,0.229,9.51,0.0,0.0,0.0,0.0,0.0,0.0,0.0,0.0,0.0
1576104082914035517,21376,1576104082913522720,,0.0,0.0,0.0,0.0,0.0,0.0,0.0,0.0,0.0,0.0,0.0,0.0,0.0,0.002,-0.001,-0.0,0.0,0.0,0.0,0.0,0.0,0.0,0.0,0.0,0.0,0.606,0.09,9.54,0.0,0.0,0.0,0.0,0.0,0.0,0.0,0.0,0.0
1576104082917496299,21377,1576104082916977405,,0.0,0.0,0.0,0.0,0.0,0.0,0.0,0.0,0.0,0.0,0.0,0.0,0.0,-0.002,0.0,-0.0,0.0,0.0,0.0,0.0,0.0,0.0,0.0,0.0,0.0,0.532,0.078,9.69,0.0,0.0,0.0,0.0,0.0,0.0,0.0,0.0,0.0
1576104082920237772,21378,1576104082919533967,,0.0,0.0,0.0,0.0,0.0,0.0,0.0,0.0,0.0,0.0,0.0,0.0,0.0,-0.002,-0.002,-0.01,0.0,0.0,0.0,0.0,0.0,0.0,0.0,0.0,0.0,0.517,0.071,9.66,0.0,0.0,0.0,0.0,0.0,0.0,0.0,0.0,0.0
1576104082923376269,21379,1576104082922638416,,0.0,0.0,0.0,0.0,0.0,0.0,0.0,0.0,0.0,0.0,0.0,0.0,0.0,0.002,-0.002,-0.0,0.0,0.0,0.0,0.0,0.0,0.0,0.0,0.0,0.0,0.501,0.047,9.71,0.0,0.0,0.0,0.0,0.0,0.0,0.0,0.0,0.0
1576104082924455847,21380,1576104082923729658,,0.0,0.0,0.0,0.0,0.0,0.0,0.0,0.0,0.0,0.0,0.0,0.0,0.0,0.003,0.001,-0.0,0.0,0.0,0.0,0.0,0.0,0.0,0.0,0.0,0.0,0.472,0.04,9.76,0.0,0.0,0.0,0.0,0.0,0.0,0.0,0.0,0.0
1576104082926656323,21381,1576104082925851583,,0.0,0.0,0.0,0.0,0.0,0.0,0.0,0.0,0.0,0.0,0.0,0.0,0.0,0.005,-0.003,-0.0,0.0,0.0,0.0,0.0,0.0,0.0,0.0,0.0,0.0,0.501,-0.015,9.58,0.0,0.0,0.0,0.0,0.0,0.0,0.0,0.0,0.0
1576104082931190004,21382,1576104082930485010,,0.0,0.0,0.0,0.0,0.0,0.0,0.0,0.0,0.0,0.0,0.0,0.0,0.0,-0.0,0.001,-0.0,0.0,0.0,0.0,0.0,0.0,0.0,0.0,0.0,0.0,0.627,-0.046,9.58,0.0,0.0,0.0,0.0,0.0,0.0,0.0,0.0,0.0
1576104082934288986,21383,1576104082933492422,,0.0,0.0,0.0,0.0,0.0,0.0,0.0,0.0,0.0,0.0,0.0,0.0,0.0,-0.005,-0.005,-0.0,0.0,0.0,0.0,0.0,0.0,0.0,0.0,0.0,0.0,0.644,-0.108,9.88,0.0,0.0,0.0,0.0,0.0,0.0,0.0,0.0,0.0
1576104082939275962,21384,1576104082938508033,,0.0,0.0,0.0,0.0,0.0,0.0,0.0,0.0,0.0,0.0,0.0,0.0,0.0,-0.006,-0.007,-0.02,0.0,0.0,0.0,0.0,0.0,0.0,0.0,0.0,0.0,0.611,-0.116,9.73,0.0,0.0,0.0,0.0,0.0,0.0,0.0,0.0,0.0
1576104082940243724,21385,1576104082939485073,,0.0,0.0,0.0,0.0,0.0,0.0,0.0,0.0,0.0,0.0,0.0,0.0,0.0,-0.005,0.004,-0.0,0.0,0.0,0.0,0.0,0.0,0.0,0.0,0.0,0.0,0.539,-0.127,9.73,0.0,0.0,0.0,0.0,0.0,0.0,0.0,0.0,0.0
1576104082965060500,21386,1576104082963274478,,0.0,0.0,0.0,0.0,0.0,0.0,0.0,0.0,0.0,0.0,0.0,0.0,0.0,-0.003,0.003,-0.0,0.0,0.0,0.0,0.0,0.0,0.0,0.0,0.0,0.0,0.393,-0.111,9.74,0.0,0.0,0.0,0.0,0.0,0.0,0.0,0.0,0.0
1576104082965135559,21387,1576104082963899374,,0.0,0.0,0.0,0.0,0.0,0.0,0.0,0.0,0.0,0.0,0.0,0.0,0.0,-0.002,0.001,-0.0,0.0,0.0,0.0,0.0,0.0,0.0,0.0,0.0,0.0,0.285,-0.104,9.71,0.0,0.0,0.0,0.0,0.0,0.0,0.0,0.0,0.0
1576104082965497687,21388,1576104082964356899,,0.0,0.0,0.0,0.0,0.0,0.0,0.0,0.0,0.0,0.0,0.0,0.0,0.0,0.001,0.0,-0.02,0.0,0.0,0.0,0.0,0.0,0.0,0.0,0.0,0.0,0.295,-0.113,9.64,0.0,0.0,0.0,0.0,0.0,0.0,0.0,0.0,0.0
1576104082965544914,21389,1576104082964867115,,0.0,0.0,0.0,0.0,0.0,0.0,0.0,0.0,0.0,0.0,0.0,0.0,0.0,-0.0,0.001,-0.0,0.0,0.0,0.0,0.0,0.0,0.0,0.0,0.0,0.0,0.297,-0.106,9.63,0.0,0.0,0.0,0.0,0.0,0.0,0.0,0.0,0.0
1576104082966368248,21390,1576104082965856313,,0.0,0.0,0.0,0.0,0.0,0.0,0.0,0.0,0.0,0.0,0.0,0.0,0.0,-0.008,-0.001,-0.0,0.0,0.0,0.0,0.0,0.0,0.0,0.0,0.0,0.0,0.261,-0.132,9.77,0.0,0.0,0.0,0.0,0.0,0.0,0.0,0.0,0.0
1576104082967309536,21391,1576104082966665744,,0.0,0.0,0.0,0.0,0.0,0.0,0.0,0.0,0.0,0.0,0.0,0.0,0.0,-0.003,-0.001,-0.0,0.0,0.0,0.0,0.0,0.0,0.0,0.0,0.0,0.0,0.266,-0.144,9.45,0.0,0.0,0.0,0.0,0.0,0.0,0.0,0.0,0.0
1576104082967658117,21392,1576104082967213153,,0.0,0.0,0.0,0.0,0.0,0.0,0.0,0.0,0.0,0.0,0.0,0.0,0.0,-0.004,0.001,-0.0,0.0,0.0,0.0,0.0,0.0,0.0,0.0,0.0,0.0,0.228,-0.118,9.37,0.0,0.0,0.0,0.0,0.0,0.0,0.0,0.0,0.0
1576104082968623506,21393,1576104082967936515,,0.0,0.0,0.0,0.0,0.0,0.0,0.0,0.0,0.0,0.0,0.0,0.0,0.0,-0.006,0.0,-0.0,0.0,0.0,0.0,0.0,0.0,0.0,0.0,0.0,0.0,0.204,-0.166,9.57,0.0,0.0,0.0,0.0,0.0,0.0,0.0,0.0,0.0
1576104082968661422,21394,1576104082968251466,,0.0,0.0,0.0,0.0,0.0,0.0,0.0,0.0,0.0,0.0,0.0,0.0,0.0,-0.008,-0.006,-0.01,0.0,0.0,0.0,0.0,0.0,0.0,0.0,0.0,0.0,0.271,-0.156,9.68,0.0,0.0,0.0,0.0,0.0,0.0,0.0,0.0,0.0
1576104082970418004,21395,1576104082970081090,,0.0,0.0,0.0,0.0,0.0,0.0,0.0,0.0,0.0,0.0,0.0,0.0,0.0,-0.003,-0.005,-0.0,0.0,0.0,0.0,0.0,0.0,0.0,0.0,0.0,0.0,0.321,-0.183,9.61,0.0,0.0,0.0,0.0,0.0,0.0,0.0,0.0,0.0
1576104082975152367,21396,1576104082974572896,,0.0,0.0,0.0,0.0,0.0,0.0,0.0,0.0,0.0,0.0,0.0,0.0,0.0,-0.004,-0.001,-0.0,0.0,0.0,0.0,0.0,0.0,0.0,0.0,0.0,0.0,0.328,-0.166,9.87,0.0,0.0,0.0,0.0,0.0,0.0,0.0,0.0,0.0
1576104082978752581,21397,1576104082978021621,,0.0,0.0,0.0,0.0,0.0,0.0,0.0,0.0,0.0,0.0,0.0,0.0,0.0,0.002,-0.008,-0.0,0.0,0.0,0.0,0.0,0.0,0.0,0.0,0.0,0.0,0.316,-0.154,9.84,0.0,0.0,0.0,0.0,0.0,0.0,0.0,0.0,0.0
1576104082980834803,21398,1576104082980309009,,0.0,0.0,0.0,0.0,0.0,0.0,0.0,0.0,0.0,0.0,0.0,0.0,0.0,0.008,-0.005,-0.01,0.0,0.0,0.0,0.0,0.0,0.0,0.0,0.0,0.0,0.321,-0.12,9.76,0.0,0.0,0.0,0.0,0.0,0.0,0.0,0.0,0.0
1576104082983110133,21399,1576104082982537984,,0.0,0.0,0.0,0.0,0.0,0.0,0.0,0.0,0.0,0.0,0.0,0.0,0.0,0.002,0.001,-0.0,0.0,0.0,0.0,0.0,0.0,0.0,0.0,0.0,0.0,0.304,-0.159,9.62,0.0,0.0,0.0,0.0,0.0,0.0,0.0,0.0,0.0
1576104082985543232,21400,1576104082984831333,,0.0,0.0,0.0,0.0,0.0,0.0,0.0,0.0,0.0,0.0,0.0,0.0,0.0,-0.005,0.0,-0.0,0.0,0.0,0.0,0.0,0.0,0.0,0.0,0.0,0.0,0.261,-0.19,9.83,0.0,0.0,0.0,0.0,0.0,0.0,0.0,0.0,0.0
1576104082987845590,21401,1576104082987152576,,0.0,0.0,0.0,0.0,0.0,0.0,0.0,0.0,0.0,0.0,0.0,0.0,0.0,-0.003,-0.008,-0.01,0.0,0.0,0.0,0.0,0.0,0.0,0.0,0.0,0.0,0.201,-0.173,10.13,0.0,0.0,0.0,0.0,0.0,0.0,0.0,0.0,0.0
1576104082990163489,21402,1576104082989370584,,0.0,0.0,0.0,0.0,0.0,0.0,0.0,0.0,0.0,0.0,0.0,0.0,0.0,0.001,-0.012,-0.0,0.0,0.0,0.0,0.0,0.0,0.0,0.0,0.0,0.0,0.216,-0.264,10.18,0.0,0.0,0.0,0.0,0.0,0.0,0.0,0.0,0.0
1576104082992454629,21403,1576104082991636276,,0.0,0.0,0.0,0.0,0.0,0.0,0.0,0.0,0.0,0.0,0.0,0.0,0.0,0.002,-0.007,-0.0,0.0,0.0,0.0,0.0,0.0,0.0,0.0,0.0,0.0,0.249,-0.283,10.15,0.0,0.0,0.0,0.0,0.0,0.0,0.0,0.0,0.0
1576104082994595359,21404,1576104082993897199,,0.0,0.0,0.0,0.0,0.0,0.0,0.0,0.0,0.0,0.0,0.0,0.0,0.0,0.006,-0.001,-0.0,0.0,0.0,0.0,0.0,0.0,0.0,0.0,0.0,0.0,0.249,-0.36,9.74,0.0,0.0,0.0,0.0,0.0,0.0,0.0,0.0,0.0
