%time,field.header.seq,field.header.stamp,field.header.frame_id,field.orientation.x,field.orientation.y,field.orientation.z,field.orientation.w,field.orientation_covariance0,field.orientation_covariance1,field.orientation_covariance2,field.orientation_covariance3,field.orientation_covariance4,field.orientation_covariance5,field.orientation_covariance6,field.orientation_covariance7,field.orientation_covariance8,field.angular_velocity.x,field.angular_velocity.y,field.angular_velocity.z,field.angular_velocity_covariance0,field.angular_velocity_covariance1,field.angular_velocity_covariance2,field.angular_velocity_covariance3,field.angular_velocity_covariance4,field.angular_velocity_covariance5,field.angular_velocity_covariance6,field.angular_velocity_covariance7,field.angular_velocity_covariance8,field.linear_acceleration.x,field.linear_acceleration.y,field.linear_acceleration.z,field.linear_acceleration_covariance0,field.linear_acceleration_covariance1,field.linear_acceleration_covariance2,field.linear_acceleration_covariance3,field.linear_acceleration_covariance4,field.linear_acceleration_covariance5,field.linear_acceleration_covariance6,field.linear_acceleration_covariance7,field.linear_acceleration_covariance8
1576083244194959010,1,0,,0.0,0.0,0.0,0.0,0.0,0.0,0.0,0.0,0.0,0.0,0.0,0.0,0.0,-0.002,0.001,-0.0,0.0,0.0,0.0,0.0,0.0,0.0,0.0,0.0,0.0,0.101,0.213,9.7,0.0,0.0,0.0,0.0,0.0,0.0,0.0,0.0,0.0
1576083244235069500,2,0,,0.0,0.0,0.0,0.0,0.0,0.0,0.0,0.0,0.0,0.0,0.0,0.0,0.0,0.0,-0.0,0.0,0.0,0.0,0.0,0.0,0.0,0.0,0.0,0.0,0.0,0.306,0.297,9.71,0.0,0.0,0.0,0.0,0.0,0.0,0.0,0.0,0.0
1576083244299926213,3,0,,0.0,0.0,0.0,0.0,0.0,0.0,0.0,0.0,0.0,0.0,0.0,0.0,0.0,-0.0,-0.0,-0.0,0.0,0.0,0.0,0.0,0.0,0.0,0.0,0.0,0.0,0.186,0.253,9.73,0.0,0.0,0.0,0.0,0.0,0.0,0.0,0.0,0.0
1576083244373045869,4,0,,0.0,0.0,0.0,0.0,0.0,0.0,0.0,0.0,0.0,0.0,0.0,0.0,0.0,-0.0,0.001,-0.0,0.0,0.0,0.0,0.0,0.0,0.0,0.0,0.0,0.0,0.141,0.224,9.74,0.0,0.0,0.0,0.0,0.0,0.0,0.0,0.0,0.0
1576083244434717111,5,0,,0.0,0.0,0.0,0.0,0.0,0.0,0.0,0.0,0.0,0.0,0.0,0.0,0.0,0.001,-0.0,0.0,0.0,0.0,0.0,0.0,0.0,0.0,0.0,0.0,0.0,0.293,0.28,9.73,0.0,0.0,0.0,0.0,0.0,0.0,0.0,0.0,0.0
1576083244501360256,6,0,,0.0,0.0,0.0,0.0,0.0,0.0,0.0,0.0,0.0,0.0,0.0,0.0,0.0,-0.0,-0.0,-0.0,0.0,0.0,0.0,0.0,0.0,0.0,0.0,0.0,0.0,0.177,0.259,9.7,0.0,0.0,0.0,0.0,0.0,0.0,0.0,0.0,0.0
1576083244568712851,7,0,,0.0,0.0,0.0,0.0,0.0,0.0,0.0,0.0,0.0,0.0,0.0,0.0,0.0,-0.0,0.0,-0.0,0.0,0.0,0.0,0.0,0.0,0.0,0.0,0.0,0.0,0.146,0.305,9.73,0.0,0.0,0.0,0.0,0.0,0.0,0.0,0.0,0.0
1576083244635079268,8,0,,0.0,0.0,0.0,0.0,0.0,0.0,0.0,0.0,0.0,0.0,0.0,0.0,0.0,-0.001,-0.0,0.0,0.0,0.0,0.0,0.0,0.0,0.0,0.0,0.0,0.0,0.321,0.23,9.69,0.0,0.0,0.0,0.0,0.0,0.0,0.0,0.0,0.0
1576083244703093263,9,0,,0.0,0.0,0.0,0.0,0.0,0.0,0.0,0.0,0.0,0.0,0.0,0.0,0.0,-0.0,0.0,0.0,0.0,0.0,0.0,0.0,0.0,0.0,0.0,0.0,0.0,0.153,0.251,9.69,0.0,0.0,0.0,0.0,0.0,0.0,0.0,0.0,0.0
1576083244771315301,10,0,,0.0,0.0,0.0,0.0,0.0,0.0,0.0,0.0,0.0,0.0,0.0,0.0,0.0,-0.0,0.0,-0.0,0.0,0.0,0.0,0.0,0.0,0.0,0.0,0.0,0.0,0.136,0.221,9.71,0.0,0.0,0.0,0.0,0.0,0.0,0.0,0.0,0.0
1576083244837227781,11,0,,0.0,0.0,0.0,0.0,0.0,0.0,0.0,0.0,0.0,0.0,0.0,0.0,0.0,-0.0,-0.0,-0.0,0.0,0.0,0.0,0.0,0.0,0.0,0.0,0.0,0.0,0.282,0.262,9.7,0.0,0.0,0.0,0.0,0.0,0.0,0.0,0.0,0.0
1576083244925740691,12,0,,0.0,0.0,0.0,0.0,0.0,0.0,0.0,0.0,0.0,0.0,0.0,0.0,0.0,-0.001,0.001,0.0,0.0,0.0,0.0,0.0,0.0,0.0,0.0,0.0,0.0,0.274,0.324,9.72,0.0,0.0,0.0,0.0,0.0,0.0,0.0,0.0,0.0
1576083245040636218,13,0,,0.0,0.0,0.0,0.0,0.0,0.0,0.0,0.0,0.0,0.0,0.0,0.0,0.0,-0.001,0.0,0.0,0.0,0.0,0.0,0.0,0.0,0.0,0.0,0.0,0.0,0.317,0.31,9.71,0.0,0.0,0.0,0.0,0.0,0.0,0.0,0.0,0.0
1576083245170497792,14,0,,0.0,0.0,0.0,0.0,0.0,0.0,0.0,0.0,0.0,0.0,0.0,0.0,0.0,0.001,-0.0,-0.0,0.0,0.0,0.0,0.0,0.0,0.0,0.0,0.0,0.0,0.068,0.171,9.72,0.0,0.0,0.0,0.0,0.0,0.0,0.0,0.0,0.0
1576083245297681219,15,0,,0.0,0.0,0.0,0.0,0.0,0.0,0.0,0.0,0.0,0.0,0.0,0.0,0.0,0.001,-0.0,0.0,0.0,0.0,0.0,0.0,0.0,0.0,0.0,0.0,0.0,0.103,0.258,9.69,0.0,0.0,0.0,0.0,0.0,0.0,0.0,0.0,0.0
1576083245369944455,16,0,,0.0,0.0,0.0,0.0,0.0,0.0,0.0,0.0,0.0,0.0,0.0,0.0,0.0,0.0,0.001,-0.0,0.0,0.0,0.0,0.0,0.0,0.0,0.0,0.0,0.0,0.169,0.181,9.74,0.0,0.0,0.0,0.0,0.0,0.0,0.0,0.0,0.0
1576083245432627944,17,0,,0.0,0.0,0.0,0.0,0.0,0.0,0.0,0.0,0.0,0.0,0.0,0.0,0.0,0.001,-0.001,0.0,0.0,0.0,0.0,0.0,0.0,0.0,0.0,0.0,0.0,0.302,0.172,9.72,0.0,0.0,0.0,0.0,0.0,0.0,0.0,0.0,0.0
1576083245502635703,18,0,,0.0,0.0,0.0,0.0,0.0,0.0,0.0,0.0,0.0,0.0,0.0,0.0,0.0,0.001,-0.0,0.0,0.0,0.0,0.0,0.0,0.0,0.0,0.0,0.0,0.0,0.277,0.401,9.65,0.0,0.0,0.0,0.0,0.0,0.0,0.0,0.0,0.0
1576083245569843040,19,0,,0.0,0.0,0.0,0.0,0.0,0.0,0.0,0.0,0.0,0.0,0.0,0.0,0.0,0.0,0.001,0.0,0.0,0.0,0.0,0.0,0.0,0.0,0.0,0.0,0.0,-0.016,-0.099,9.69,0.0,0.0,0.0,0.0,0.0,0.0,0.0,0.0,0.0
1576083245633015887,20,0,,0.0,0.0,0.0,0.0,0.0,0.0,0.0,0.0,0.0,0.0,0.0,0.0,0.0,0.002,-0.001,-0.0,0.0,0.0,0.0,0.0,0.0,0.0,0.0,0.0,0.0,0.52,-0.105,9.72,0.0,0.0,0.0,0.0,0.0,0.0,0.0,0.0,0.0
1576083245700740000,21,0,,0.0,0.0,0.0,0.0,0.0,0.0,0.0,0.0,0.0,0.0,0.0,0.0,0.0,0.002,-0.002,-0.02,0.0,0.0,0.0,0.0,0.0,0.0,0.0,0.0,0.0,0.161,-0.407,9.57,0.0,0.0,0.0,0.0,0.0,0.0,0.0,0.0,0.0
1576083245770445264,22,0,,0.0,0.0,0.0,0.0,0.0,0.0,0.0,0.0,0.0,0.0,0.0,0.0,0.0,0.001,-0.001,-0.04,0.0,0.0,0.0,0.0,0.0,0.0,0.0,0.0,0.0,0.235,-1.136,9.7,0.0,0.0,0.0,0.0,0.0,0.0,0.0,0.0,0.0
1576083245835163042,23,0,,0.0,0.0,0.0,0.0,0.0,0.0,0.0,0.0,0.0,0.0,0.0,0.0,0.0,0.001,0.002,-0.03,0.0,0.0,0.0,0.0,0.0,0.0,0.0,0.0,0.0,0.035,-0.71,9.69,0.0,0.0,0.0,0.0,0.0,0.0,0.0,0.0,0.0
1576083245904212296,24,0,,0.0,0.0,0.0,0.0,0.0,0.0,0.0,0.0,0.0,0.0,0.0,0.0,0.0,0.002,0.001,-0.07,0.0,0.0,0.0,0.0,0.0,0.0,0.0,0.0,0.0,-0.066,-1.071,9.58,0.0,0.0,0.0,0.0,0.0,0.0,0.0,0.0,0.0
1576083245975078607,25,0,,0.0,0.0,0.0,0.0,0.0,0.0,0.0,0.0,0.0,0.0,0.0,0.0,0.0,0.007,0.001,-0.08,0.0,0.0,0.0,0.0,0.0,0.0,0.0,0.0,0.0,0.407,-0.715,9.86,0.0,0.0,0.0,0.0,0.0,0.0,0.0,0.0,0.0
1576083246038663443,26,0,,0.0,0.0,0.0,0.0,0.0,0.0,0.0,0.0,0.0,0.0,0.0,0.0,0.0,0.016,0.004,0.02,0.0,0.0,0.0,0.0,0.0,0.0,0.0,0.0,0.0,-0.337,-0.368,9.75,0.0,0.0,0.0,0.0,0.0,0.0,0.0,0.0,0.0
1576083246105298597,27,0,,0.0,0.0,0.0,0.0,0.0,0.0,0.0,0.0,0.0,0.0,0.0,0.0,0.0,0.03,0.004,0.09,0.0,0.0,0.0,0.0,0.0,0.0,0.0,0.0,0.0,0.136,-0.173,10.19,0.0,0.0,0.0,0.0,0.0,0.0,0.0,0.0,0.0
1576083246238468666,28,0,,0.0,0.0,0.0,0.0,0.0,0.0,0.0,0.0,0.0,0.0,0.0,0.0,0.0,0.008,-0.005,0.1,0.0,0.0,0.0,0.0,0.0,0.0,0.0,0.0,0.0,-0.617,0.375,9.9,0.0,0.0,0.0,0.0,0.0,0.0,0.0,0.0,0.0
1576083246306583917,29,0,,0.0,0.0,0.0,0.0,0.0,0.0,0.0,0.0,0.0,0.0,0.0,0.0,0.0,0.044,0.002,-0.0,0.0,0.0,0.0,0.0,0.0,0.0,0.0,0.0,0.0,0.328,0.445,10.18,0.0,0.0,0.0,0.0,0.0,0.0,0.0,0.0,0.0
1576083246372641659,30,0,,0.0,0.0,0.0,0.0,0.0,0.0,0.0,0.0,0.0,0.0,0.0,0.0,0.0,0.02,-0.003,-0.08,0.0,0.0,0.0,0.0,0.0,0.0,0.0,0.0,0.0,0.55,0.794,9.72,0.0,0.0,0.0,0.0,0.0,0.0,0.0,0.0,0.0
1576083246443313894,31,0,,0.0,0.0,0.0,0.0,0.0,0.0,0.0,0.0,0.0,0.0,0.0,0.0,0.0,0.013,-0.007,-0.16,0.0,0.0,0.0,0.0,0.0,0.0,0.0,0.0,0.0,0.853,0.498,10.39,0.0,0.0,0.0,0.0,0.0,0.0,0.0,0.0,0.0
1576083246566889828,32,0,,0.0,0.0,0.0,0.0,0.0,0.0,0.0,0.0,0.0,0.0,0.0,0.0,0.0,0.018,-0.006,-0.17,0.0,0.0,0.0,0.0,0.0,0.0,0.0,0.0,0.0,0.276,0.45,9.42,0.0,0.0,0.0,0.0,0.0,0.0,0.0,0.0,0.0
1576083246631420017,33,0,,0.0,0.0,0.0,0.0,0.0,0.0,0.0,0.0,0.0,0.0,0.0,0.0,0.0,0.018,-0.0,-0.11,0.0,0.0,0.0,0.0,0.0,0.0,0.0,0.0,0.0,0.176,1.005,9.29,0.0,0.0,0.0,0.0,0.0,0.0,0.0,0.0,0.0
1576083246699595375,34,0,,0.0,0.0,0.0,0.0,0.0,0.0,0.0,0.0,0.0,0.0,0.0,0.0,0.0,0.019,-0.004,-0.03,0.0,0.0,0.0,0.0,0.0,0.0,0.0,0.0,0.0,0.202,0.854,9.78,0.0,0.0,0.0,0.0,0.0,0.0,0.0,0.0,0.0
1576083246768498059,35,0,,0.0,0.0,0.0,0.0,0.0,0.0,0.0,0.0,0.0,0.0,0.0,0.0,0.0,0.007,-0.005,0.01,0.0,0.0,0.0,0.0,0.0,0.0,0.0,0.0,0.0,0.26,1.367,10.06,0.0,0.0,0.0,0.0,0.0,0.0,0.0,0.0,0.0
1576083246834681797,36,0,,0.0,0.0,0.0,0.0,0.0,0.0,0.0,0.0,0.0,0.0,0.0,0.0,0.0,0.015,0.002,0.01,0.0,0.0,0.0,0.0,0.0,0.0,0.0,0.0,0.0,0.341,1.749,9.63,0.0,0.0,0.0,0.0,0.0,0.0,0.0,0.0,0.0
1576083246898835106,37,0,,0.0,0.0,0.0,0.0,0.0,0.0,0.0,0.0,0.0,0.0,0.0,0.0,0.0,0.01,0.002,0.01,0.0,0.0,0.0,0.0,0.0,0.0,0.0,0.0,0.0,0.29,1.688,9.76,0.0,0.0,0.0,0.0,0.0,0.0,0.0,0.0,0.0
1576083246971546710,38,0,,0.0,0.0,0.0,0.0,0.0,0.0,0.0,0.0,0.0,0.0,0.0,0.0,0.0,-0.007,0.004,-0.01,0.0,0.0,0.0,0.0,0.0,0.0,0.0,0.0,0.0,0.229,1.642,9.73,0.0,0.0,0.0,0.0,0.0,0.0,0.0,0.0,0.0
1576083247038853509,39,0,,0.0,0.0,0.0,0.0,0.0,0.0,0.0,0.0,0.0,0.0,0.0,0.0,0.0,0.003,0.004,-0.03,0.0,0.0,0.0,0.0,0.0,0.0,0.0,0.0,0.0,0.199,1.346,9.72,0.0,0.0,0.0,0.0,0.0,0.0,0.0,0.0,0.0
1576083247103129625,40,0,,0.0,0.0,0.0,0.0,0.0,0.0,0.0,0.0,0.0,0.0,0.0,0.0,0.0,-0.014,0.005,-0.02,0.0,0.0,0.0,0.0,0.0,0.0,0.0,0.0,0.0,-0.031,0.904,9.54,0.0,0.0,0.0,0.0,0.0,0.0,0.0,0.0,0.0
1576083247169947361,41,0,,0.0,0.0,0.0,0.0,0.0,0.0,0.0,0.0,0.0,0.0,0.0,0.0,0.0,-0.02,0.005,0.01,0.0,0.0,0.0,0.0,0.0,0.0,0.0,0.0,0.0,0.381,1.389,9.73,0.0,0.0,0.0,0.0,0.0,0.0,0.0,0.0,0.0
1576083247234690438,42,0,,0.0,0.0,0.0,0.0,0.0,0.0,0.0,0.0,0.0,0.0,0.0,0.0,0.0,0.002,-0.002,0.09,0.0,0.0,0.0,0.0,0.0,0.0,0.0,0.0,0.0,0.611,1.627,10.07,0.0,0.0,0.0,0.0,0.0,0.0,0.0,0.0,0.0
1576083247307276018,43,0,,0.0,0.0,0.0,0.0,0.0,0.0,0.0,0.0,0.0,0.0,0.0,0.0,0.0,-0.028,0.011,0.1,0.0,0.0,0.0,0.0,0.0,0.0,0.0,0.0,0.0,0.522,1.634,10.27,0.0,0.0,0.0,0.0,0.0,0.0,0.0,0.0,0.0
1576083247367945518,44,0,,0.0,0.0,0.0,0.0,0.0,0.0,0.0,0.0,0.0,0.0,0.0,0.0,0.0,-0.026,0.007,0.04,0.0,0.0,0.0,0.0,0.0,0.0,0.0,0.0,0.0,0.607,1.502,9.39,0.0,0.0,0.0,0.0,0.0,0.0,0.0,0.0,0.0
1576083247436897258,45,0,,0.0,0.0,0.0,0.0,0.0,0.0,0.0,0.0,0.0,0.0,0.0,0.0,0.0,-0.046,0.007,-0.07,0.0,0.0,0.0,0.0,0.0,0.0,0.0,0.0,0.0,0.193,1.391,9.95,0.0,0.0,0.0,0.0,0.0,0.0,0.0,0.0,0.0
1576083247504811385,46,0,,0.0,0.0,0.0,0.0,0.0,0.0,0.0,0.0,0.0,0.0,0.0,0.0,0.0,-0.041,0.001,-0.12,0.0,0.0,0.0,0.0,0.0,0.0,0.0,0.0,0.0,0.578,1.308,9.46,0.0,0.0,0.0,0.0,0.0,0.0,0.0,0.0,0.0
1576083247638126947,47,0,,0.0,0.0,0.0,0.0,0.0,0.0,0.0,0.0,0.0,0.0,0.0,0.0,0.0,0.008,0.003,-0.11,0.0,0.0,0.0,0.0,0.0,0.0,0.0,0.0,0.0,0.512,1.35,10.68,0.0,0.0,0.0,0.0,0.0,0.0,0.0,0.0,0.0
1576083247765361369,48,0,,0.0,0.0,0.0,0.0,0.0,0.0,0.0,0.0,0.0,0.0,0.0,0.0,0.0,-0.024,0.004,-0.06,0.0,0.0,0.0,0.0,0.0,0.0,0.0,0.0,0.0,-0.131,0.82,9.59,0.0,0.0,0.0,0.0,0.0,0.0,0.0,0.0,0.0
1576083247830175778,49,0,,0.0,0.0,0.0,0.0,0.0,0.0,0.0,0.0,0.0,0.0,0.0,0.0,0.0,-0.014,0.006,-0.0,0.0,0.0,0.0,0.0,0.0,0.0,0.0,0.0,0.0,-0.048,0.632,10.98,0.0,0.0,0.0,0.0,0.0,0.0,0.0,0.0,0.0
1576083247897282197,50,0,,0.0,0.0,0.0,0.0,0.0,0.0,0.0,0.0,0.0,0.0,0.0,0.0,0.0,-0.009,-0.013,0.04,0.0,0.0,0.0,0.0,0.0,0.0,0.0,0.0,0.0,0.328,1.059,10.73,0.0,0.0,0.0,0.0,0.0,0.0,0.0,0.0,0.0
1576083247965108909,51,0,,0.0,0.0,0.0,0.0,0.0,0.0,0.0,0.0,0.0,0.0,0.0,0.0,0.0,-0.004,-0.003,0.09,0.0,0.0,0.0,0.0,0.0,0.0,0.0,0.0,0.0,0.173,0.653,11.49,0.0,0.0,0.0,0.0,0.0,0.0,0.0,0.0,0.0
1576083248035273453,52,0,,0.0,0.0,0.0,0.0,0.0,0.0,0.0,0.0,0.0,0.0,0.0,0.0,0.0,0.005,-0.006,0.09,0.0,0.0,0.0,0.0,0.0,0.0,0.0,0.0,0.0,0.408,0.736,10.4,0.0,0.0,0.0,0.0,0.0,0.0,0.0,0.0,0.0
1576083248099143343,53,0,,0.0,0.0,0.0,0.0,0.0,0.0,0.0,0.0,0.0,0.0,0.0,0.0,0.0,0.01,0.003,0.06,0.0,0.0,0.0,0.0,0.0,0.0,0.0,0.0,0.0,0.364,0.303,8.8,0.0,0.0,0.0,0.0,0.0,0.0,0.0,0.0,0.0
1576083248166265243,54,0,,0.0,0.0,0.0,0.0,0.0,0.0,0.0,0.0,0.0,0.0,0.0,0.0,0.0,0.016,0.004,0.04,0.0,0.0,0.0,0.0,0.0,0.0,0.0,0.0,0.0,0.237,0.658,9.85,0.0,0.0,0.0,0.0,0.0,0.0,0.0,0.0,0.0
1576083248241872003,55,0,,0.0,0.0,0.0,0.0,0.0,0.0,0.0,0.0,0.0,0.0,0.0,0.0,0.0,0.015,-0.002,0.07,0.0,0.0,0.0,0.0,0.0,0.0,0.0,0.0,0.0,0.241,0.466,9.22,0.0,0.0,0.0,0.0,0.0,0.0,0.0,0.0,0.0
1576083248301284831,56,0,,0.0,0.0,0.0,0.0,0.0,0.0,0.0,0.0,0.0,0.0,0.0,0.0,0.0,0.018,-0.006,0.09,0.0,0.0,0.0,0.0,0.0,0.0,0.0,0.0,0.0,0.116,0.763,11.48,0.0,0.0,0.0,0.0,0.0,0.0,0.0,0.0,0.0
1576083248367825552,57,0,,0.0,0.0,0.0,0.0,0.0,0.0,0.0,0.0,0.0,0.0,0.0,0.0,0.0,0.015,-0.007,0.11,0.0,0.0,0.0,0.0,0.0,0.0,0.0,0.0,0.0,0.286,1.517,8.52,0.0,0.0,0.0,0.0,0.0,0.0,0.0,0.0,0.0
1576083248433894625,58,0,,0.0,0.0,0.0,0.0,0.0,0.0,0.0,0.0,0.0,0.0,0.0,0.0,0.0,0.013,-0.003,0.1,0.0,0.0,0.0,0.0,0.0,0.0,0.0,0.0,0.0,0.226,0.593,9.04,0.0,0.0,0.0,0.0,0.0,0.0,0.0,0.0,0.0
1576083248503735644,59,0,,0.0,0.0,0.0,0.0,0.0,0.0,0.0,0.0,0.0,0.0,0.0,0.0,0.0,0.007,-0.008,0.07,0.0,0.0,0.0,0.0,0.0,0.0,0.0,0.0,0.0,0.22,0.582,9.13,0.0,0.0,0.0,0.0,0.0,0.0,0.0,0.0,0.0
1576083248568539647,60,0,,0.0,0.0,0.0,0.0,0.0,0.0,0.0,0.0,0.0,0.0,0.0,0.0,0.0,0.001,-0.007,0.02,0.0,0.0,0.0,0.0,0.0,0.0,0.0,0.0,0.0,0.258,0.846,9.67,0.0,0.0,0.0,0.0,0.0,0.0,0.0,0.0,0.0
1576083248636880959,61,0,,0.0,0.0,0.0,0.0,0.0,0.0,0.0,0.0,0.0,0.0,0.0,0.0,0.0,0.028,0.0,-0.01,0.0,0.0,0.0,0.0,0.0,0.0,0.0,0.0,0.0,0.403,0.623,9.08,0.0,0.0,0.0,0.0,0.0,0.0,0.0,0.0,0.0
1576083248703583410,62,0,,0.0,0.0,0.0,0.0,0.0,0.0,0.0,0.0,0.0,0.0,0.0,0.0,0.0,-0.056,-0.011,-0.02,0.0,0.0,0.0,0.0,0.0,0.0,0.0,0.0,0.0,0.354,0.745,9.17,0.0,0.0,0.0,0.0,0.0,0.0,0.0,0.0,0.0
1576083248769932802,63,0,,0.0,0.0,0.0,0.0,0.0,0.0,0.0,0.0,0.0,0.0,0.0,0.0,0.0,-0.015,0.006,-0.04,0.0,0.0,0.0,0.0,0.0,0.0,0.0,0.0,0.0,0.031,0.686,6.56,0.0,0.0,0.0,0.0,0.0,0.0,0.0,0.0,0.0
1576083248839841941,64,0,,0.0,0.0,0.0,0.0,0.0,0.0,0.0,0.0,0.0,0.0,0.0,0.0,0.0,-0.015,-0.024,-0.03,0.0,0.0,0.0,0.0,0.0,0.0,0.0,0.0,0.0,-0.017,0.265,9.81,0.0,0.0,0.0,0.0,0.0,0.0,0.0,0.0,0.0
1576083248904737553,65,0,,0.0,0.0,0.0,0.0,0.0,0.0,0.0,0.0,0.0,0.0,0.0,0.0,0.0,-0.013,0.004,-0.04,0.0,0.0,0.0,0.0,0.0,0.0,0.0,0.0,0.0,0.107,0.54,7.34,0.0,0.0,0.0,0.0,0.0,0.0,0.0,0.0,0.0
1576083249034398748,66,0,,0.0,0.0,0.0,0.0,0.0,0.0,0.0,0.0,0.0,0.0,0.0,0.0,0.0,-0.018,-0.003,-0.01,0.0,0.0,0.0,0.0,0.0,0.0,0.0,0.0,0.0,-0.26,0.356,11.88,0.0,0.0,0.0,0.0,0.0,0.0,0.0,0.0,0.0
1576083249102833714,67,0,,0.0,0.0,0.0,0.0,0.0,0.0,0.0,0.0,0.0,0.0,0.0,0.0,0.0,0.003,-0.015,0.01,0.0,0.0,0.0,0.0,0.0,0.0,0.0,0.0,0.0,0.223,0.914,13.49,0.0,0.0,0.0,0.0,0.0,0.0,0.0,0.0,0.0
1576083249164386141,68,0,,0.0,0.0,0.0,0.0,0.0,0.0,0.0,0.0,0.0,0.0,0.0,0.0,0.0,-0.011,-0.013,0.01,0.0,0.0,0.0,0.0,0.0,0.0,0.0,0.0,0.0,0.6,0.801,13.07,0.0,0.0,0.0,0.0,0.0,0.0,0.0,0.0,0.0
1576083249230946191,69,0,,0.0,0.0,0.0,0.0,0.0,0.0,0.0,0.0,0.0,0.0,0.0,0.0,0.0,0.005,0.004,0.02,0.0,0.0,0.0,0.0,0.0,0.0,0.0,0.0,0.0,-0.179,0.459,6.37,0.0,0.0,0.0,0.0,0.0,0.0,0.0,0.0,0.0
1576083249312537552,70,0,,0.0,0.0,0.0,0.0,0.0,0.0,0.0,0.0,0.0,0.0,0.0,0.0,0.0,0.007,0.002,-0.01,0.0,0.0,0.0,0.0,0.0,0.0,0.0,0.0,0.0,0.07,2.179,8.05,0.0,0.0,0.0,0.0,0.0,0.0,0.0,0.0,0.0
1576083249365910101,71,0,,0.0,0.0,0.0,0.0,0.0,0.0,0.0,0.0,0.0,0.0,0.0,0.0,0.0,-0.028,-0.018,-0.05,0.0,0.0,0.0,0.0,0.0,0.0,0.0,0.0,0.0,0.223,0.486,4.3,0.0,0.0,0.0,0.0,0.0,0.0,0.0,0.0,0.0
1576083249431956946,72,0,,0.0,0.0,0.0,0.0,0.0,0.0,0.0,0.0,0.0,0.0,0.0,0.0,0.0,-0.038,-0.028,-0.1,0.0,0.0,0.0,0.0,0.0,0.0,0.0,0.0,0.0,0.362,1.41,6.28,0.0,0.0,0.0,0.0,0.0,0.0,0.0,0.0,0.0
1576083249498964930,73,0,,0.0,0.0,0.0,0.0,0.0,0.0,0.0,0.0,0.0,0.0,0.0,0.0,0.0,-0.037,0.015,-0.13,0.0,0.0,0.0,0.0,0.0,0.0,0.0,0.0,0.0,0.119,0.77,10.13,0.0,0.0,0.0,0.0,0.0,0.0,0.0,0.0,0.0
1576083249567330005,74,0,,0.0,0.0,0.0,0.0,0.0,0.0,0.0,0.0,0.0,0.0,0.0,0.0,0.0,-0.069,0.104,-0.09,0.0,0.0,0.0,0.0,0.0,0.0,0.0,0.0,0.0,-0.228,-0.267,1.99,0.0,0.0,0.0,0.0,0.0,0.0,0.0,0.0,0.0
1576083249634856400,75,0,,0.0,0.0,0.0,0.0,0.0,0.0,0.0,0.0,0.0,0.0,0.0,0.0,0.0,-0.106,0.014,-0.08,0.0,0.0,0.0,0.0,0.0,0.0,0.0,0.0,0.0,0.268,-0.459,9.12,0.0,0.0,0.0,0.0,0.0,0.0,0.0,0.0,0.0
1576083249703964209,76,0,,0.0,0.0,0.0,0.0,0.0,0.0,0.0,0.0,0.0,0.0,0.0,0.0,0.0,0.206,-0.095,0.09,0.0,0.0,0.0,0.0,0.0,0.0,0.0,0.0,0.0,0.019,4.416,12.08,0.0,0.0,0.0,0.0,0.0,0.0,0.0,0.0,0.0
1576083249771828401,77,0,,0.0,0.0,0.0,0.0,0.0,0.0,0.0,0.0,0.0,0.0,0.0,0.0,0.0,-0.064,0.157,0.14,0.0,0.0,0.0,0.0,0.0,0.0,0.0,0.0,0.0,-0.103,-1.378,5.25,0.0,0.0,0.0,0.0,0.0,0.0,0.0,0.0,0.0
1576083249908480314,78,0,,0.0,0.0,0.0,0.0,0.0,0.0,0.0,0.0,0.0,0.0,0.0,0.0,0.0,-0.021,-0.009,0.1,0.0,0.0,0.0,0.0,0.0,0.0,0.0,0.0,0.0,-0.258,-1.072,11.61,0.0,0.0,0.0,0.0,0.0,0.0,0.0,0.0,0.0
1576083249972268847,79,0,,0.0,0.0,0.0,0.0,0.0,0.0,0.0,0.0,0.0,0.0,0.0,0.0,0.0,0.006,0.056,0.06,0.0,0.0,0.0,0.0,0.0,0.0,0.0,0.0,0.0,0.45,0.445,8.61,0.0,0.0,0.0,0.0,0.0,0.0,0.0,0.0,0.0
1576083250038169565,80,0,,0.0,0.0,0.0,0.0,0.0,0.0,0.0,0.0,0.0,0.0,0.0,0.0,0.0,-0.02,0.012,0.02,0.0,0.0,0.0,0.0,0.0,0.0,0.0,0.0,0.0,0.48,0.55,5.39,0.0,0.0,0.0,0.0,0.0,0.0,0.0,0.0,0.0
1576083250104909246,81,0,,0.0,0.0,0.0,0.0,0.0,0.0,0.0,0.0,0.0,0.0,0.0,0.0,0.0,0.034,-0.024,-0.07,0.0,0.0,0.0,0.0,0.0,0.0,0.0,0.0,0.0,0.004,1.1,8.17,0.0,0.0,0.0,0.0,0.0,0.0,0.0,0.0,0.0
1576083250231843471,82,0,,0.0,0.0,0.0,0.0,0.0,0.0,0.0,0.0,0.0,0.0,0.0,0.0,0.0,0.017,0.008,-0.12,0.0,0.0,0.0,0.0,0.0,0.0,0.0,0.0,0.0,0.026,-0.104,10.89,0.0,0.0,0.0,0.0,0.0,0.0,0.0,0.0,0.0
1576083250296997200,83,0,,0.0,0.0,0.0,0.0,0.0,0.0,0.0,0.0,0.0,0.0,0.0,0.0,0.0,-0.015,0.011,-0.16,0.0,0.0,0.0,0.0,0.0,0.0,0.0,0.0,0.0,0.595,0.032,5.41,0.0,0.0,0.0,0.0,0.0,0.0,0.0,0.0,0.0
1576083250363174050,84,0,,0.0,0.0,0.0,0.0,0.0,0.0,0.0,0.0,0.0,0.0,0.0,0.0,0.0,0.001,0.005,-0.2,0.0,0.0,0.0,0.0,0.0,0.0,0.0,0.0,0.0,0.444,-0.501,10.49,0.0,0.0,0.0,0.0,0.0,0.0,0.0,0.0,0.0
1576083250430532620,85,0,,0.0,0.0,0.0,0.0,0.0,0.0,0.0,0.0,0.0,0.0,0.0,0.0,0.0,0.023,0.0,-0.23,0.0,0.0,0.0,0.0,0.0,0.0,0.0,0.0,0.0,-0.096,0.106,9.49,0.0,0.0,0.0,0.0,0.0,0.0,0.0,0.0,0.0
1576083250500826177,86,0,,0.0,0.0,0.0,0.0,0.0,0.0,0.0,0.0,0.0,0.0,0.0,0.0,0.0,0.024,0.003,-0.17,0.0,0.0,0.0,0.0,0.0,0.0,0.0,0.0,0.0,0.182,0.026,9.34,0.0,0.0,0.0,0.0,0.0,0.0,0.0,0.0,0.0
1576083250566486754,87,0,,0.0,0.0,0.0,0.0,0.0,0.0,0.0,0.0,0.0,0.0,0.0,0.0,0.0,0.004,-0.019,-0.1,0.0,0.0,0.0,0.0,0.0,0.0,0.0,0.0,0.0,-0.216,0.058,7.35,0.0,0.0,0.0,0.0,0.0,0.0,0.0,0.0,0.0
1576083250631311883,88,0,,0.0,0.0,0.0,0.0,0.0,0.0,0.0,0.0,0.0,0.0,0.0,0.0,0.0,0.025,-0.002,-0.0,0.0,0.0,0.0,0.0,0.0,0.0,0.0,0.0,0.0,-0.386,-0.702,9.02,0.0,0.0,0.0,0.0,0.0,0.0,0.0,0.0,0.0
1576083250700121461,89,0,,0.0,0.0,0.0,0.0,0.0,0.0,0.0,0.0,0.0,0.0,0.0,0.0,0.0,0.012,0.002,0.05,0.0,0.0,0.0,0.0,0.0,0.0,0.0,0.0,0.0,0.23,0.17,7.49,0.0,0.0,0.0,0.0,0.0,0.0,0.0,0.0,0.0
1576083250768748565,90,0,,0.0,0.0,0.0,0.0,0.0,0.0,0.0,0.0,0.0,0.0,0.0,0.0,0.0,-0.001,-0.003,0.08,0.0,0.0,0.0,0.0,0.0,0.0,0.0,0.0,0.0,-0.413,0.404,12.39,0.0,0.0,0.0,0.0,0.0,0.0,0.0,0.0,0.0
1576083250835723229,91,0,,0.0,0.0,0.0,0.0,0.0,0.0,0.0,0.0,0.0,0.0,0.0,0.0,0.0,-0.013,-0.002,0.09,0.0,0.0,0.0,0.0,0.0,0.0,0.0,0.0,0.0,0.123,-0.023,5.18,0.0,0.0,0.0,0.0,0.0,0.0,0.0,0.0,0.0
1576083250903422050,92,0,,0.0,0.0,0.0,0.0,0.0,0.0,0.0,0.0,0.0,0.0,0.0,0.0,0.0,-0.01,0.006,0.09,0.0,0.0,0.0,0.0,0.0,0.0,0.0,0.0,0.0,0.069,-0.065,11.85,0.0,0.0,0.0,0.0,0.0,0.0,0.0,0.0,0.0
1576083250974703131,93,0,,0.0,0.0,0.0,0.0,0.0,0.0,0.0,0.0,0.0,0.0,0.0,0.0,0.0,0.009,0.015,0.05,0.0,0.0,0.0,0.0,0.0,0.0,0.0,0.0,0.0,-0.135,0.109,12.15,0.0,0.0,0.0,0.0,0.0,0.0,0.0,0.0,0.0
1576083251106486403,94,0,,0.0,0.0,0.0,0.0,0.0,0.0,0.0,0.0,0.0,0.0,0.0,0.0,0.0,0.009,-0.002,0.03,0.0,0.0,0.0,0.0,0.0,0.0,0.0,0.0,0.0,0.051,0.35,8.07,0.0,0.0,0.0,0.0,0.0,0.0,0.0,0.0,0.0
1576083251174174689,95,0,,0.0,0.0,0.0,0.0,0.0,0.0,0.0,0.0,0.0,0.0,0.0,0.0,0.0,-0.014,-0.007,-0.0,0.0,0.0,0.0,0.0,0.0,0.0,0.0,0.0,0.0,0.534,-0.14,8.76,0.0,0.0,0.0,0.0,0.0,0.0,0.0,0.0,0.0
1576083251267703455,96,0,,0.0,0.0,0.0,0.0,0.0,0.0,0.0,0.0,0.0,0.0,0.0,0.0,0.0,-0.029,-0.187,0.03,0.0,0.0,0.0,0.0,0.0,0.0,0.0,0.0,0.0,-0.041,-0.53,17.27,0.0,0.0,0.0,0.0,0.0,0.0,0.0,0.0,0.0
1576083251306671480,97,0,,0.0,0.0,0.0,0.0,0.0,0.0,0.0,0.0,0.0,0.0,0.0,0.0,0.0,-0.1,0.13,-0.02,0.0,0.0,0.0,0.0,0.0,0.0,0.0,0.0,0.0,1.702,0.522,10.01,0.0,0.0,0.0,0.0,0.0,0.0,0.0,0.0,0.0
1576083251431651090,98,0,,0.0,0.0,0.0,0.0,0.0,0.0,0.0,0.0,0.0,0.0,0.0,0.0,0.0,0.027,0.052,0.07,0.0,0.0,0.0,0.0,0.0,0.0,0.0,0.0,0.0,-0.015,1.829,9.32,0.0,0.0,0.0,0.0,0.0,0.0,0.0,0.0,0.0
1576083251503592573,99,0,,0.0,0.0,0.0,0.0,0.0,0.0,0.0,0.0,0.0,0.0,0.0,0.0,0.0,0.035,-0.003,-0.08,0.0,0.0,0.0,0.0,0.0,0.0,0.0,0.0,0.0,0.529,0.186,9.86,0.0,0.0,0.0,0.0,0.0,0.0,0.0,0.0,0.0
1576083251563907341,100,0,,0.0,0.0,0.0,0.0,0.0,0.0,0.0,0.0,0.0,0.0,0.0,0.0,0.0,-0.051,-0.0,0.09,0.0,0.0,0.0,0.0,0.0,0.0,0.0,0.0,0.0,-1.032,0.732,16.17,0.0,0.0,0.0,0.0,0.0,0.0,0.0,0.0,0.0
1576083251629989800,101,0,,0.0,0.0,0.0,0.0,0.0,0.0,0.0,0.0,0.0,0.0,0.0,0.0,0.0,0.057,-0.01,0.0,0.0,0.0,0.0,0.0,0.0,0.0,0.0,0.0,0.0,1.277,2.063,9.45,0.0,0.0,0.0,0.0,0.0,0.0,0.0,0.0,0.0
1576083251697954833,102,0,,0.0,0.0,0.0,0.0,0.0,0.0,0.0,0.0,0.0,0.0,0.0,0.0,0.0,-0.073,0.009,0.17,0.0,0.0,0.0,0.0,0.0,0.0,0.0,0.0,0.0,-0.443,-0.904,6.36,0.0,0.0,0.0,0.0,0.0,0.0,0.0,0.0,0.0
1576083251771720252,103,0,,0.0,0.0,0.0,0.0,0.0,0.0,0.0,0.0,0.0,0.0,0.0,0.0,0.0,0.022,0.011,0.07,0.0,0.0,0.0,0.0,0.0,0.0,0.0,0.0,0.0,0.759,1.128,11.63,0.0,0.0,0.0,0.0,0.0,0.0,0.0,0.0,0.0
1576083251831783459,104,0,,0.0,0.0,0.0,0.0,0.0,0.0,0.0,0.0,0.0,0.0,0.0,0.0,0.0,0.041,-0.014,-0.01,0.0,0.0,0.0,0.0,0.0,0.0,0.0,0.0,0.0,-0.181,-1.045,13.95,0.0,0.0,0.0,0.0,0.0,0.0,0.0,0.0,0.0
1576083251899032638,105,0,,0.0,0.0,0.0,0.0,0.0,0.0,0.0,0.0,0.0,0.0,0.0,0.0,0.0,-0.007,-0.007,-0.03,0.0,0.0,0.0,0.0,0.0,0.0,0.0,0.0,0.0,0.633,-0.079,8.6,0.0,0.0,0.0,0.0,0.0,0.0,0.0,0.0,0.0
1576083251969398768,106,0,,0.0,0.0,0.0,0.0,0.0,0.0,0.0,0.0,0.0,0.0,0.0,0.0,0.0,0.024,0.011,0.02,0.0,0.0,0.0,0.0,0.0,0.0,0.0,0.0,0.0,0.603,-0.669,7.64,0.0,0.0,0.0,0.0,0.0,0.0,0.0,0.0,0.0
1576083252036644181,107,0,,0.0,0.0,0.0,0.0,0.0,0.0,0.0,0.0,0.0,0.0,0.0,0.0,0.0,-0.008,-0.005,0.03,0.0,0.0,0.0,0.0,0.0,0.0,0.0,0.0,0.0,-0.095,0.172,12.19,0.0,0.0,0.0,0.0,0.0,0.0,0.0,0.0,0.0
1576083252104779131,108,0,,0.0,0.0,0.0,0.0,0.0,0.0,0.0,0.0,0.0,0.0,0.0,0.0,0.0,0.036,-0.001,0.06,0.0,0.0,0.0,0.0,0.0,0.0,0.0,0.0,0.0,0.232,0.917,6.42,0.0,0.0,0.0,0.0,0.0,0.0,0.0,0.0,0.0
1576083252181303959,109,0,,0.0,0.0,0.0,0.0,0.0,0.0,0.0,0.0,0.0,0.0,0.0,0.0,0.0,-0.012,-0.04,0.08,0.0,0.0,0.0,0.0,0.0,0.0,0.0,0.0,0.0,0.807,-0.769,9.13,0.0,0.0,0.0,0.0,0.0,0.0,0.0,0.0,0.0
1576083252235312522,110,0,,0.0,0.0,0.0,0.0,0.0,0.0,0.0,0.0,0.0,0.0,0.0,0.0,0.0,-0.014,0.007,0.15,0.0,0.0,0.0,0.0,0.0,0.0,0.0,0.0,0.0,0.042,0.8,8.93,0.0,0.0,0.0,0.0,0.0,0.0,0.0,0.0,0.0
1576083252382450846,111,0,,0.0,0.0,0.0,0.0,0.0,0.0,0.0,0.0,0.0,0.0,0.0,0.0,0.0,0.014,-0.016,0.07,0.0,0.0,0.0,0.0,0.0,0.0,0.0,0.0,0.0,0.52,0.643,6.39,0.0,0.0,0.0,0.0,0.0,0.0,0.0,0.0,0.0
1576083252440060884,112,0,,0.0,0.0,0.0,0.0,0.0,0.0,0.0,0.0,0.0,0.0,0.0,0.0,0.0,-0.023,0.017,0.05,0.0,0.0,0.0,0.0,0.0,0.0,0.0,0.0,0.0,-0.357,-0.204,11.37,0.0,0.0,0.0,0.0,0.0,0.0,0.0,0.0,0.0
1576083252506503957,113,0,,0.0,0.0,0.0,0.0,0.0,0.0,0.0,0.0,0.0,0.0,0.0,0.0,0.0,0.009,-0.008,0.14,0.0,0.0,0.0,0.0,0.0,0.0,0.0,0.0,0.0,0.066,1.974,12.68,0.0,0.0,0.0,0.0,0.0,0.0,0.0,0.0,0.0
1576083252630836166,114,0,,0.0,0.0,0.0,0.0,0.0,0.0,0.0,0.0,0.0,0.0,0.0,0.0,0.0,0.017,0.008,0.03,0.0,0.0,0.0,0.0,0.0,0.0,0.0,0.0,0.0,0.082,-0.106,6.18,0.0,0.0,0.0,0.0,0.0,0.0,0.0,0.0,0.0
1576083252701628706,115,0,,0.0,0.0,0.0,0.0,0.0,0.0,0.0,0.0,0.0,0.0,0.0,0.0,0.0,-0.038,0.006,-0.03,0.0,0.0,0.0,0.0,0.0,0.0,0.0,0.0,0.0,-0.421,0.52,10.66,0.0,0.0,0.0,0.0,0.0,0.0,0.0,0.0,0.0
1576083252777964690,116,0,,0.0,0.0,0.0,0.0,0.0,0.0,0.0,0.0,0.0,0.0,0.0,0.0,0.0,0.013,-0.028,-0.1,0.0,0.0,0.0,0.0,0.0,0.0,0.0,0.0,0.0,1.059,-0.841,13.36,0.0,0.0,0.0,0.0,0.0,0.0,0.0,0.0,0.0
1576083252830084061,117,0,,0.0,0.0,0.0,0.0,0.0,0.0,0.0,0.0,0.0,0.0,0.0,0.0,0.0,-0.106,-0.0,-0.08,0.0,0.0,0.0,0.0,0.0,0.0,0.0,0.0,0.0,2.576,-2.391,7.34,0.0,0.0,0.0,0.0,0.0,0.0,0.0,0.0,0.0
1576083252898995236,118,0,,0.0,0.0,0.0,0.0,0.0,0.0,0.0,0.0,0.0,0.0,0.0,0.0,0.0,0.036,0.058,-0.2,0.0,0.0,0.0,0.0,0.0,0.0,0.0,0.0,0.0,-1.025,0.271,6.4,0.0,0.0,0.0,0.0,0.0,0.0,0.0,0.0,0.0
1576083252983932679,119,0,,0.0,0.0,0.0,0.0,0.0,0.0,0.0,0.0,0.0,0.0,0.0,0.0,0.0,0.075,-0.038,-0.03,0.0,0.0,0.0,0.0,0.0,0.0,0.0,0.0,0.0,0.268,-0.895,9.5,0.0,0.0,0.0,0.0,0.0,0.0,0.0,0.0,0.0
1576083253030888214,120,0,,0.0,0.0,0.0,0.0,0.0,0.0,0.0,0.0,0.0,0.0,0.0,0.0,0.0,-0.026,-0.008,0.09,0.0,0.0,0.0,0.0,0.0,0.0,0.0,0.0,0.0,1.141,-0.361,10.95,0.0,0.0,0.0,0.0,0.0,0.0,0.0,0.0,0.0
1576083253104736645,121,0,,0.0,0.0,0.0,0.0,0.0,0.0,0.0,0.0,0.0,0.0,0.0,0.0,0.0,0.08,0.003,0.04,0.0,0.0,0.0,0.0,0.0,0.0,0.0,0.0,0.0,0.07,0.747,5.19,0.0,0.0,0.0,0.0,0.0,0.0,0.0,0.0,0.0
1576083253179520926,122,0,,0.0,0.0,0.0,0.0,0.0,0.0,0.0,0.0,0.0,0.0,0.0,0.0,0.0,-0.103,-0.024,0.12,0.0,0.0,0.0,0.0,0.0,0.0,0.0,0.0,0.0,0.706,-0.955,10.58,0.0,0.0,0.0,0.0,0.0,0.0,0.0,0.0,0.0
1576083253234484540,123,0,,0.0,0.0,0.0,0.0,0.0,0.0,0.0,0.0,0.0,0.0,0.0,0.0,0.0,0.001,0.01,0.02,0.0,0.0,0.0,0.0,0.0,0.0,0.0,0.0,0.0,0.163,0.66,7.15,0.0,0.0,0.0,0.0,0.0,0.0,0.0,0.0,0.0
1576083253301472942,124,0,,0.0,0.0,0.0,0.0,0.0,0.0,0.0,0.0,0.0,0.0,0.0,0.0,0.0,0.013,-0.006,-0.0,0.0,0.0,0.0,0.0,0.0,0.0,0.0,0.0,0.0,-0.307,-0.542,10.32,0.0,0.0,0.0,0.0,0.0,0.0,0.0,0.0,0.0
1576083253377702019,125,0,,0.0,0.0,0.0,0.0,0.0,0.0,0.0,0.0,0.0,0.0,0.0,0.0,0.0,-0.013,-0.015,0.05,0.0,0.0,0.0,0.0,0.0,0.0,0.0,0.0,0.0,0.422,0.367,9.16,0.0,0.0,0.0,0.0,0.0,0.0,0.0,0.0,0.0
1576083253442485743,126,0,,0.0,0.0,0.0,0.0,0.0,0.0,0.0,0.0,0.0,0.0,0.0,0.0,0.0,0.001,-0.008,0.09,0.0,0.0,0.0,0.0,0.0,0.0,0.0,0.0,0.0,0.128,-0.343,9.48,0.0,0.0,0.0,0.0,0.0,0.0,0.0,0.0,0.0
1576083253505599064,127,0,,0.0,0.0,0.0,0.0,0.0,0.0,0.0,0.0,0.0,0.0,0.0,0.0,0.0,-0.023,-0.016,0.07,0.0,0.0,0.0,0.0,0.0,0.0,0.0,0.0,0.0,-0.054,-0.183,9.99,0.0,0.0,0.0,0.0,0.0,0.0,0.0,0.0,0.0
1576083253638835373,128,0,,0.0,0.0,0.0,0.0,0.0,0.0,0.0,0.0,0.0,0.0,0.0,0.0,0.0,0.004,-0.006,0.01,0.0,0.0,0.0,0.0,0.0,0.0,0.0,0.0,0.0,0.223,0.046,11.17,0.0,0.0,0.0,0.0,0.0,0.0,0.0,0.0,0.0
1576083253706641856,129,0,,0.0,0.0,0.0,0.0,0.0,0.0,0.0,0.0,0.0,0.0,0.0,0.0,0.0,0.021,-0.018,-0.03,0.0,0.0,0.0,0.0,0.0,0.0,0.0,0.0,0.0,0.639,-0.078,6.19,0.0,0.0,0.0,0.0,0.0,0.0,0.0,0.0,0.0
1576083253777161645,130,0,,0.0,0.0,0.0,0.0,0.0,0.0,0.0,0.0,0.0,0.0,0.0,0.0,0.0,0.022,0.006,-0.0,0.0,0.0,0.0,0.0,0.0,0.0,0.0,0.0,0.0,0.427,-0.258,10.37,0.0,0.0,0.0,0.0,0.0,0.0,0.0,0.0,0.0
1576083253842841008,131,0,,0.0,0.0,0.0,0.0,0.0,0.0,0.0,0.0,0.0,0.0,0.0,0.0,0.0,0.0,-0.027,0.0,0.0,0.0,0.0,0.0,0.0,0.0,0.0,0.0,0.0,0.138,-0.357,9.26,0.0,0.0,0.0,0.0,0.0,0.0,0.0,0.0,0.0
1576083253975349924,132,0,,0.0,0.0,0.0,0.0,0.0,0.0,0.0,0.0,0.0,0.0,0.0,0.0,0.0,-0.007,-0.01,0.01,0.0,0.0,0.0,0.0,0.0,0.0,0.0,0.0,0.0,0.211,-0.384,10.46,0.0,0.0,0.0,0.0,0.0,0.0,0.0,0.0,0.0
1576083254036252574,133,0,,0.0,0.0,0.0,0.0,0.0,0.0,0.0,0.0,0.0,0.0,0.0,0.0,0.0,-0.004,-0.007,0.03,0.0,0.0,0.0,0.0,0.0,0.0,0.0,0.0,0.0,0.11,-0.103,11.31,0.0,0.0,0.0,0.0,0.0,0.0,0.0,0.0,0.0
1576083254097966376,134,0,,0.0,0.0,0.0,0.0,0.0,0.0,0.0,0.0,0.0,0.0,0.0,0.0,0.0,0.005,-0.011,0.03,0.0,0.0,0.0,0.0,0.0,0.0,0.0,0.0,0.0,0.607,-0.088,9.11,0.0,0.0,0.0,0.0,0.0,0.0,0.0,0.0,0.0
1576083254182377993,135,0,,0.0,0.0,0.0,0.0,0.0,0.0,0.0,0.0,0.0,0.0,0.0,0.0,0.0,0.005,-0.008,0.0,0.0,0.0,0.0,0.0,0.0,0.0,0.0,0.0,0.0,0.495,-0.113,5.29,0.0,0.0,0.0,0.0,0.0,0.0,0.0,0.0,0.0
1576083254230996402,136,0,,0.0,0.0,0.0,0.0,0.0,0.0,0.0,0.0,0.0,0.0,0.0,0.0,0.0,-0.001,0.008,0.0,0.0,0.0,0.0,0.0,0.0,0.0,0.0,0.0,0.0,-0.025,-0.323,7.97,0.0,0.0,0.0,0.0,0.0,0.0,0.0,0.0,0.0
1576083254298447895,137,0,,0.0,0.0,0.0,0.0,0.0,0.0,0.0,0.0,0.0,0.0,0.0,0.0,0.0,-0.009,-0.014,0.01,0.0,0.0,0.0,0.0,0.0,0.0,0.0,0.0,0.0,-0.074,-0.639,10.7,0.0,0.0,0.0,0.0,0.0,0.0,0.0,0.0,0.0
1576083254375011868,138,0,,0.0,0.0,0.0,0.0,0.0,0.0,0.0,0.0,0.0,0.0,0.0,0.0,0.0,-0.115,0.025,-0.03,0.0,0.0,0.0,0.0,0.0,0.0,0.0,0.0,0.0,-0.29,0.246,14.4,0.0,0.0,0.0,0.0,0.0,0.0,0.0,0.0,0.0
1576083254435500492,139,0,,0.0,0.0,0.0,0.0,0.0,0.0,0.0,0.0,0.0,0.0,0.0,0.0,0.0,0.137,-0.001,0.13,0.0,0.0,0.0,0.0,0.0,0.0,0.0,0.0,0.0,-0.505,-0.494,6.83,0.0,0.0,0.0,0.0,0.0,0.0,0.0,0.0,0.0
1576083254505574931,140,0,,0.0,0.0,0.0,0.0,0.0,0.0,0.0,0.0,0.0,0.0,0.0,0.0,0.0,0.017,-0.013,0.11,0.0,0.0,0.0,0.0,0.0,0.0,0.0,0.0,0.0,1.329,0.082,9.64,0.0,0.0,0.0,0.0,0.0,0.0,0.0,0.0,0.0
1576083254576505450,141,0,,0.0,0.0,0.0,0.0,0.0,0.0,0.0,0.0,0.0,0.0,0.0,0.0,0.0,-0.033,0.037,0.07,0.0,0.0,0.0,0.0,0.0,0.0,0.0,0.0,0.0,0.096,-0.273,12.64,0.0,0.0,0.0,0.0,0.0,0.0,0.0,0.0,0.0
1576083254635909677,142,0,,0.0,0.0,0.0,0.0,0.0,0.0,0.0,0.0,0.0,0.0,0.0,0.0,0.0,0.009,-0.049,0.06,0.0,0.0,0.0,0.0,0.0,0.0,0.0,0.0,0.0,0.989,0.118,7.67,0.0,0.0,0.0,0.0,0.0,0.0,0.0,0.0,0.0
1576083254705120879,143,0,,0.0,0.0,0.0,0.0,0.0,0.0,0.0,0.0,0.0,0.0,0.0,0.0,0.0,-0.052,0.041,-0.04,0.0,0.0,0.0,0.0,0.0,0.0,0.0,0.0,0.0,0.625,0.772,12.11,0.0,0.0,0.0,0.0,0.0,0.0,0.0,0.0,0.0
1576083254773497259,144,0,,0.0,0.0,0.0,0.0,0.0,0.0,0.0,0.0,0.0,0.0,0.0,0.0,0.0,0.066,0.018,0.01,0.0,0.0,0.0,0.0,0.0,0.0,0.0,0.0,0.0,-0.446,-1.546,3.77,0.0,0.0,0.0,0.0,0.0,0.0,0.0,0.0,0.0
1576083254843639395,145,0,,0.0,0.0,0.0,0.0,0.0,0.0,0.0,0.0,0.0,0.0,0.0,0.0,0.0,-0.01,-0.041,0.11,0.0,0.0,0.0,0.0,0.0,0.0,0.0,0.0,0.0,-0.272,1.095,11.33,0.0,0.0,0.0,0.0,0.0,0.0,0.0,0.0,0.0
1576083254906904122,146,0,,0.0,0.0,0.0,0.0,0.0,0.0,0.0,0.0,0.0,0.0,0.0,0.0,0.0,-0.008,-0.005,0.17,0.0,0.0,0.0,0.0,0.0,0.0,0.0,0.0,0.0,-0.328,-0.713,8.49,0.0,0.0,0.0,0.0,0.0,0.0,0.0,0.0,0.0
1576083255048061848,147,0,,0.0,0.0,0.0,0.0,0.0,0.0,0.0,0.0,0.0,0.0,0.0,0.0,0.0,-0.009,0.008,0.03,0.0,0.0,0.0,0.0,0.0,0.0,0.0,0.0,0.0,1.036,-0.13,7.72,0.0,0.0,0.0,0.0,0.0,0.0,0.0,0.0,0.0
1576083255174088969,148,0,,0.0,0.0,0.0,0.0,0.0,0.0,0.0,0.0,0.0,0.0,0.0,0.0,0.0,0.002,-0.002,0.01,0.0,0.0,0.0,0.0,0.0,0.0,0.0,0.0,0.0,-0.585,-0.586,11.85,0.0,0.0,0.0,0.0,0.0,0.0,0.0,0.0,0.0
1576083255233222904,149,0,,0.0,0.0,0.0,0.0,0.0,0.0,0.0,0.0,0.0,0.0,0.0,0.0,0.0,-0.011,-0.003,-0.02,0.0,0.0,0.0,0.0,0.0,0.0,0.0,0.0,0.0,0.403,-0.235,8.93,0.0,0.0,0.0,0.0,0.0,0.0,0.0,0.0,0.0
1576083255299588418,150,0,,0.0,0.0,0.0,0.0,0.0,0.0,0.0,0.0,0.0,0.0,0.0,0.0,0.0,0.005,0.004,-0.03,0.0,0.0,0.0,0.0,0.0,0.0,0.0,0.0,0.0,0.249,-0.074,8.47,0.0,0.0,0.0,0.0,0.0,0.0,0.0,0.0,0.0
1576083255375215317,151,0,,0.0,0.0,0.0,0.0,0.0,0.0,0.0,0.0,0.0,0.0,0.0,0.0,0.0,0.001,0.001,-0.04,0.0,0.0,0.0,0.0,0.0,0.0,0.0,0.0,0.0,-0.239,-0.348,8.91,0.0,0.0,0.0,0.0,0.0,0.0,0.0,0.0,0.0
1576083255436048303,152,0,,0.0,0.0,0.0,0.0,0.0,0.0,0.0,0.0,0.0,0.0,0.0,0.0,0.0,0.011,0.007,-0.02,0.0,0.0,0.0,0.0,0.0,0.0,0.0,0.0,0.0,0.479,-0.064,9.12,0.0,0.0,0.0,0.0,0.0,0.0,0.0,0.0,0.0
1576083255503847435,153,0,,0.0,0.0,0.0,0.0,0.0,0.0,0.0,0.0,0.0,0.0,0.0,0.0,0.0,0.012,0.01,-0.01,0.0,0.0,0.0,0.0,0.0,0.0,0.0,0.0,0.0,0.196,-0.049,8.5,0.0,0.0,0.0,0.0,0.0,0.0,0.0,0.0,0.0
1576083255574785422,154,0,,0.0,0.0,0.0,0.0,0.0,0.0,0.0,0.0,0.0,0.0,0.0,0.0,0.0,-0.015,-0.006,-0.02,0.0,0.0,0.0,0.0,0.0,0.0,0.0,0.0,0.0,0.572,-0.107,11.2,0.0,0.0,0.0,0.0,0.0,0.0,0.0,0.0,0.0
1576083255634904110,155,0,,0.0,0.0,0.0,0.0,0.0,0.0,0.0,0.0,0.0,0.0,0.0,0.0,0.0,0.003,-0.0,-0.03,0.0,0.0,0.0,0.0,0.0,0.0,0.0,0.0,0.0,0.345,-0.261,10.15,0.0,0.0,0.0,0.0,0.0,0.0,0.0,0.0,0.0
1576083255709983666,156,0,,0.0,0.0,0.0,0.0,0.0,0.0,0.0,0.0,0.0,0.0,0.0,0.0,0.0,0.009,0.012,-0.05,0.0,0.0,0.0,0.0,0.0,0.0,0.0,0.0,0.0,0.443,0.437,10.06,0.0,0.0,0.0,0.0,0.0,0.0,0.0,0.0,0.0
1576083255775829916,157,0,,0.0,0.0,0.0,0.0,0.0,0.0,0.0,0.0,0.0,0.0,0.0,0.0,0.0,0.013,-0.005,-0.01,0.0,0.0,0.0,0.0,0.0,0.0,0.0,0.0,0.0,0.727,0.171,10.29,0.0,0.0,0.0,0.0,0.0,0.0,0.0,0.0,0.0
1576083255839675535,158,0,,0.0,0.0,0.0,0.0,0.0,0.0,0.0,0.0,0.0,0.0,0.0,0.0,0.0,-0.003,0.004,0.02,0.0,0.0,0.0,0.0,0.0,0.0,0.0,0.0,0.0,-0.084,1.208,7.4,0.0,0.0,0.0,0.0,0.0,0.0,0.0,0.0,0.0
1576083255910920831,159,0,,0.0,0.0,0.0,0.0,0.0,0.0,0.0,0.0,0.0,0.0,0.0,0.0,0.0,0.019,-0.035,0.07,0.0,0.0,0.0,0.0,0.0,0.0,0.0,0.0,0.0,-1.286,-4.777,7.76,0.0,0.0,0.0,0.0,0.0,0.0,0.0,0.0,0.0
1576083255972742535,160,0,,0.0,0.0,0.0,0.0,0.0,0.0,0.0,0.0,0.0,0.0,0.0,0.0,0.0,-0.036,0.064,0.15,0.0,0.0,0.0,0.0,0.0,0.0,0.0,0.0,0.0,1.527,1.652,9.67,0.0,0.0,0.0,0.0,0.0,0.0,0.0,0.0,0.0
1576083256040174906,161,0,,0.0,0.0,0.0,0.0,0.0,0.0,0.0,0.0,0.0,0.0,0.0,0.0,0.0,-0.036,0.002,0.07,0.0,0.0,0.0,0.0,0.0,0.0,0.0,0.0,0.0,-0.041,-0.979,9.63,0.0,0.0,0.0,0.0,0.0,0.0,0.0,0.0,0.0
1576083256109224596,162,0,,0.0,0.0,0.0,0.0,0.0,0.0,0.0,0.0,0.0,0.0,0.0,0.0,0.0,-0.018,-0.02,0.1,0.0,0.0,0.0,0.0,0.0,0.0,0.0,0.0,0.0,0.676,0.179,8.4,0.0,0.0,0.0,0.0,0.0,0.0,0.0,0.0,0.0
1576083256239553523,163,0,,0.0,0.0,0.0,0.0,0.0,0.0,0.0,0.0,0.0,0.0,0.0,0.0,0.0,0.061,0.003,0.07,0.0,0.0,0.0,0.0,0.0,0.0,0.0,0.0,0.0,0.036,0.866,9.85,0.0,0.0,0.0,0.0,0.0,0.0,0.0,0.0,0.0
1576083256308304818,164,0,,0.0,0.0,0.0,0.0,0.0,0.0,0.0,0.0,0.0,0.0,0.0,0.0,0.0,0.004,0.003,0.09,0.0,0.0,0.0,0.0,0.0,0.0,0.0,0.0,0.0,0.713,-0.03,9.34,0.0,0.0,0.0,0.0,0.0,0.0,0.0,0.0,0.0
1576083256434507401,165,0,,0.0,0.0,0.0,0.0,0.0,0.0,0.0,0.0,0.0,0.0,0.0,0.0,0.0,0.03,0.012,0.12,0.0,0.0,0.0,0.0,0.0,0.0,0.0,0.0,0.0,0.374,-0.358,9.33,0.0,0.0,0.0,0.0,0.0,0.0,0.0,0.0,0.0
1576083256498698336,166,0,,0.0,0.0,0.0,0.0,0.0,0.0,0.0,0.0,0.0,0.0,0.0,0.0,0.0,0.01,-0.008,0.13,0.0,0.0,0.0,0.0,0.0,0.0,0.0,0.0,0.0,-0.084,-0.138,10.05,0.0,0.0,0.0,0.0,0.0,0.0,0.0,0.0,0.0
1576083256572591924,167,0,,0.0,0.0,0.0,0.0,0.0,0.0,0.0,0.0,0.0,0.0,0.0,0.0,0.0,-0.002,0.001,0.15,0.0,0.0,0.0,0.0,0.0,0.0,0.0,0.0,0.0,0.535,-0.296,9.81,0.0,0.0,0.0,0.0,0.0,0.0,0.0,0.0,0.0
1576083256632158726,168,0,,0.0,0.0,0.0,0.0,0.0,0.0,0.0,0.0,0.0,0.0,0.0,0.0,0.0,0.013,0.017,0.15,0.0,0.0,0.0,0.0,0.0,0.0,0.0,0.0,0.0,-0.194,0.516,8.84,0.0,0.0,0.0,0.0,0.0,0.0,0.0,0.0,0.0
1576083256701480603,169,0,,0.0,0.0,0.0,0.0,0.0,0.0,0.0,0.0,0.0,0.0,0.0,0.0,0.0,-0.008,-0.003,0.15,0.0,0.0,0.0,0.0,0.0,0.0,0.0,0.0,0.0,0.589,0.149,9.85,0.0,0.0,0.0,0.0,0.0,0.0,0.0,0.0,0.0
1576083256770389565,170,0,,0.0,0.0,0.0,0.0,0.0,0.0,0.0,0.0,0.0,0.0,0.0,0.0,0.0,0.002,0.002,0.13,0.0,0.0,0.0,0.0,0.0,0.0,0.0,0.0,0.0,0.231,0.256,9.23,0.0,0.0,0.0,0.0,0.0,0.0,0.0,0.0,0.0
1576083256833074587,171,0,,0.0,0.0,0.0,0.0,0.0,0.0,0.0,0.0,0.0,0.0,0.0,0.0,0.0,0.005,-0.01,0.13,0.0,0.0,0.0,0.0,0.0,0.0,0.0,0.0,0.0,0.184,0.051,10.29,0.0,0.0,0.0,0.0,0.0,0.0,0.0,0.0,0.0
1576083256898208225,172,0,,0.0,0.0,0.0,0.0,0.0,0.0,0.0,0.0,0.0,0.0,0.0,0.0,0.0,-0.001,0.006,0.14,0.0,0.0,0.0,0.0,0.0,0.0,0.0,0.0,0.0,0.734,-0.493,7.07,0.0,0.0,0.0,0.0,0.0,0.0,0.0,0.0,0.0
1576083256995241811,173,0,,0.0,0.0,0.0,0.0,0.0,0.0,0.0,0.0,0.0,0.0,0.0,0.0,0.0,-0.003,0.014,0.15,0.0,0.0,0.0,0.0,0.0,0.0,0.0,0.0,0.0,-0.504,-0.721,10.17,0.0,0.0,0.0,0.0,0.0,0.0,0.0,0.0,0.0
1576083257035570816,174,0,,0.0,0.0,0.0,0.0,0.0,0.0,0.0,0.0,0.0,0.0,0.0,0.0,0.0,0.017,-0.005,0.2,0.0,0.0,0.0,0.0,0.0,0.0,0.0,0.0,0.0,-0.03,-0.435,10.24,0.0,0.0,0.0,0.0,0.0,0.0,0.0,0.0,0.0
1576083257103132076,175,0,,0.0,0.0,0.0,0.0,0.0,0.0,0.0,0.0,0.0,0.0,0.0,0.0,0.0,-0.009,-0.009,0.25,0.0,0.0,0.0,0.0,0.0,0.0,0.0,0.0,0.0,-0.136,-0.629,9.81,0.0,0.0,0.0,0.0,0.0,0.0,0.0,0.0,0.0
1576083257170918500,176,0,,0.0,0.0,0.0,0.0,0.0,0.0,0.0,0.0,0.0,0.0,0.0,0.0,0.0,0.006,0.005,0.31,0.0,0.0,0.0,0.0,0.0,0.0,0.0,0.0,0.0,-0.148,-0.17,10.3,0.0,0.0,0.0,0.0,0.0,0.0,0.0,0.0,0.0
1576083257244869055,177,0,,0.0,0.0,0.0,0.0,0.0,0.0,0.0,0.0,0.0,0.0,0.0,0.0,0.0,-0.002,0.006,0.41,0.0,0.0,0.0,0.0,0.0,0.0,0.0,0.0,0.0,0.575,-0.043,11.04,0.0,0.0,0.0,0.0,0.0,0.0,0.0,0.0,0.0
1576083257305753737,178,0,,0.0,0.0,0.0,0.0,0.0,0.0,0.0,0.0,0.0,0.0,0.0,0.0,0.0,-0.044,-0.0,0.38,0.0,0.0,0.0,0.0,0.0,0.0,0.0,0.0,0.0,-0.666,0.095,10.24,0.0,0.0,0.0,0.0,0.0,0.0,0.0,0.0,0.0
1576083257370097830,179,0,,0.0,0.0,0.0,0.0,0.0,0.0,0.0,0.0,0.0,0.0,0.0,0.0,0.0,-0.025,-0.011,0.31,0.0,0.0,0.0,0.0,0.0,0.0,0.0,0.0,0.0,0.274,-0.128,8.54,0.0,0.0,0.0,0.0,0.0,0.0,0.0,0.0,0.0
1576083257443148799,180,0,,0.0,0.0,0.0,0.0,0.0,0.0,0.0,0.0,0.0,0.0,0.0,0.0,0.0,0.009,0.023,0.27,0.0,0.0,0.0,0.0,0.0,0.0,0.0,0.0,0.0,0.277,-0.492,10.2,0.0,0.0,0.0,0.0,0.0,0.0,0.0,0.0,0.0
1576083257531883104,181,0,,0.0,0.0,0.0,0.0,0.0,0.0,0.0,0.0,0.0,0.0,0.0,0.0,0.0,-0.009,-0.073,0.21,0.0,0.0,0.0,0.0,0.0,0.0,0.0,0.0,0.0,-0.453,-0.394,7.4,0.0,0.0,0.0,0.0,0.0,0.0,0.0,0.0,0.0
1576083257632292630,182,0,,0.0,0.0,0.0,0.0,0.0,0.0,0.0,0.0,0.0,0.0,0.0,0.0,0.0,-0.025,-0.007,0.21,0.0,0.0,0.0,0.0,0.0,0.0,0.0,0.0,0.0,-0.23,0.342,10.24,0.0,0.0,0.0,0.0,0.0,0.0,0.0,0.0,0.0
1576083257698868068,183,0,,0.0,0.0,0.0,0.0,0.0,0.0,0.0,0.0,0.0,0.0,0.0,0.0,0.0,0.046,0.005,0.26,0.0,0.0,0.0,0.0,0.0,0.0,0.0,0.0,0.0,-0.631,-0.1,7.78,0.0,0.0,0.0,0.0,0.0,0.0,0.0,0.0,0.0
1576083257768507209,184,0,,0.0,0.0,0.0,0.0,0.0,0.0,0.0,0.0,0.0,0.0,0.0,0.0,0.0,-0.024,0.032,0.29,0.0,0.0,0.0,0.0,0.0,0.0,0.0,0.0,0.0,-1.597,-1.077,11.77,0.0,0.0,0.0,0.0,0.0,0.0,0.0,0.0,0.0
1576083257830686565,185,0,,0.0,0.0,0.0,0.0,0.0,0.0,0.0,0.0,0.0,0.0,0.0,0.0,0.0,-0.061,0.041,0.34,0.0,0.0,0.0,0.0,0.0,0.0,0.0,0.0,0.0,-1.77,-1.2,9.9,0.0,0.0,0.0,0.0,0.0,0.0,0.0,0.0,0.0
1576083257901235628,186,0,,0.0,0.0,0.0,0.0,0.0,0.0,0.0,0.0,0.0,0.0,0.0,0.0,0.0,-0.007,-0.037,0.41,0.0,0.0,0.0,0.0,0.0,0.0,0.0,0.0,0.0,0.681,-1.508,14.8,0.0,0.0,0.0,0.0,0.0,0.0,0.0,0.0,0.0
1576083257975063591,187,0,,0.0,0.0,0.0,0.0,0.0,0.0,0.0,0.0,0.0,0.0,0.0,0.0,0.0,-0.036,0.101,0.4,0.0,0.0,0.0,0.0,0.0,0.0,0.0,0.0,0.0,-2.247,0.432,11.8,0.0,0.0,0.0,0.0,0.0,0.0,0.0,0.0,0.0
1576083258033190937,188,0,,0.0,0.0,0.0,0.0,0.0,0.0,0.0,0.0,0.0,0.0,0.0,0.0,0.0,0.055,-0.073,0.56,0.0,0.0,0.0,0.0,0.0,0.0,0.0,0.0,0.0,-0.363,0.767,10.96,0.0,0.0,0.0,0.0,0.0,0.0,0.0,0.0,0.0
1576083258105624782,189,0,,0.0,0.0,0.0,0.0,0.0,0.0,0.0,0.0,0.0,0.0,0.0,0.0,0.0,0.082,-0.014,0.76,0.0,0.0,0.0,0.0,0.0,0.0,0.0,0.0,0.0,0.664,0.527,9.21,0.0,0.0,0.0,0.0,0.0,0.0,0.0,0.0,0.0
1576083258170207862,190,0,,0.0,0.0,0.0,0.0,0.0,0.0,0.0,0.0,0.0,0.0,0.0,0.0,0.0,-0.041,0.047,0.71,0.0,0.0,0.0,0.0,0.0,0.0,0.0,0.0,0.0,-0.89,-0.186,11.38,0.0,0.0,0.0,0.0,0.0,0.0,0.0,0.0,0.0
1576083258239529718,191,0,,0.0,0.0,0.0,0.0,0.0,0.0,0.0,0.0,0.0,0.0,0.0,0.0,0.0,-0.043,0.023,0.51,0.0,0.0,0.0,0.0,0.0,0.0,0.0,0.0,0.0,-0.269,-0.006,9.06,0.0,0.0,0.0,0.0,0.0,0.0,0.0,0.0,0.0
1576083258303770738,192,0,,0.0,0.0,0.0,0.0,0.0,0.0,0.0,0.0,0.0,0.0,0.0,0.0,0.0,0.02,-0.032,0.41,0.0,0.0,0.0,0.0,0.0,0.0,0.0,0.0,0.0,0.202,0.222,12.35,0.0,0.0,0.0,0.0,0.0,0.0,0.0,0.0,0.0
1576083258370080600,193,0,,0.0,0.0,0.0,0.0,0.0,0.0,0.0,0.0,0.0,0.0,0.0,0.0,0.0,0.05,-0.006,0.42,0.0,0.0,0.0,0.0,0.0,0.0,0.0,0.0,0.0,-1.282,-0.216,6.7,0.0,0.0,0.0,0.0,0.0,0.0,0.0,0.0,0.0
1576083258439552963,194,0,,0.0,0.0,0.0,0.0,0.0,0.0,0.0,0.0,0.0,0.0,0.0,0.0,0.0,0.075,0.158,0.43,0.0,0.0,0.0,0.0,0.0,0.0,0.0,0.0,0.0,0.142,0.068,8.53,0.0,0.0,0.0,0.0,0.0,0.0,0.0,0.0,0.0
1576083258573683502,195,0,,0.0,0.0,0.0,0.0,0.0,0.0,0.0,0.0,0.0,0.0,0.0,0.0,0.0,-0.141,-0.014,0.43,0.0,0.0,0.0,0.0,0.0,0.0,0.0,0.0,0.0,0.687,-0.396,11.22,0.0,0.0,0.0,0.0,0.0,0.0,0.0,0.0,0.0
1576083258637573056,196,0,,0.0,0.0,0.0,0.0,0.0,0.0,0.0,0.0,0.0,0.0,0.0,0.0,0.0,-0.012,-0.075,0.35,0.0,0.0,0.0,0.0,0.0,0.0,0.0,0.0,0.0,-1.075,-0.785,10.08,0.0,0.0,0.0,0.0,0.0,0.0,0.0,0.0,0.0
1576083258711989606,197,0,,0.0,0.0,0.0,0.0,0.0,0.0,0.0,0.0,0.0,0.0,0.0,0.0,0.0,0.087,-0.055,0.27,0.0,0.0,0.0,0.0,0.0,0.0,0.0,0.0,0.0,1.003,1.011,9.71,0.0,0.0,0.0,0.0,0.0,0.0,0.0,0.0,0.0
1576083258771320201,198,0,,0.0,0.0,0.0,0.0,0.0,0.0,0.0,0.0,0.0,0.0,0.0,0.0,0.0,0.021,0.043,0.29,0.0,0.0,0.0,0.0,0.0,0.0,0.0,0.0,0.0,-0.42,1.778,10.73,0.0,0.0,0.0,0.0,0.0,0.0,0.0,0.0,0.0
1576083258896599805,199,0,,0.0,0.0,0.0,0.0,0.0,0.0,0.0,0.0,0.0,0.0,0.0,0.0,0.0,-0.198,0.023,0.3,0.0,0.0,0.0,0.0,0.0,0.0,0.0,0.0,0.0,-0.792,0.131,9.83,0.0,0.0,0.0,0.0,0.0,0.0,0.0,0.0,0.0
1576083258973820570,200,0,,0.0,0.0,0.0,0.0,0.0,0.0,0.0,0.0,0.0,0.0,0.0,0.0,0.0,-0.342,0.1,0.39,0.0,0.0,0.0,0.0,0.0,0.0,0.0,0.0,0.0,-1.939,-6.229,10.17,0.0,0.0,0.0,0.0,0.0,0.0,0.0,0.0,0.0
1576083259040274500,201,0,,0.0,0.0,0.0,0.0,0.0,0.0,0.0,0.0,0.0,0.0,0.0,0.0,0.0,0.044,-0.079,0.03,0.0,0.0,0.0,0.0,0.0,0.0,0.0,0.0,0.0,-0.933,0.956,9.43,0.0,0.0,0.0,0.0,0.0,0.0,0.0,0.0,0.0
1576083259097255625,202,0,,0.0,0.0,0.0,0.0,0.0,0.0,0.0,0.0,0.0,0.0,0.0,0.0,0.0,0.348,-0.145,0.44,0.0,0.0,0.0,0.0,0.0,0.0,0.0,0.0,0.0,0.669,0.346,1.91,0.0,0.0,0.0,0.0,0.0,0.0,0.0,0.0,0.0
1576083259169574890,203,0,,0.0,0.0,0.0,0.0,0.0,0.0,0.0,0.0,0.0,0.0,0.0,0.0,0.0,0.012,0.316,0.84,0.0,0.0,0.0,0.0,0.0,0.0,0.0,0.0,0.0,-2.009,-0.394,18.17,0.0,0.0,0.0,0.0,0.0,0.0,0.0,0.0,0.0
1576083259232700107,204,0,,0.0,0.0,0.0,0.0,0.0,0.0,0.0,0.0,0.0,0.0,0.0,0.0,0.0,-0.08,-0.243,0.58,0.0,0.0,0.0,0.0,0.0,0.0,0.0,0.0,0.0,1.179,0.413,14.12,0.0,0.0,0.0,0.0,0.0,0.0,0.0,0.0,0.0
1576083259301723155,205,0,,0.0,0.0,0.0,0.0,0.0,0.0,0.0,0.0,0.0,0.0,0.0,0.0,0.0,0.032,0.064,0.24,0.0,0.0,0.0,0.0,0.0,0.0,0.0,0.0,0.0,0.822,0.288,8.1,0.0,0.0,0.0,0.0,0.0,0.0,0.0,0.0,0.0
1576083259376732639,206,0,,0.0,0.0,0.0,0.0,0.0,0.0,0.0,0.0,0.0,0.0,0.0,0.0,0.0,-0.022,-0.017,0.26,0.0,0.0,0.0,0.0,0.0,0.0,0.0,0.0,0.0,0.659,0.131,13.64,0.0,0.0,0.0,0.0,0.0,0.0,0.0,0.0,0.0
1576083259433440729,207,0,,0.0,0.0,0.0,0.0,0.0,0.0,0.0,0.0,0.0,0.0,0.0,0.0,0.0,-0.035,0.021,0.24,0.0,0.0,0.0,0.0,0.0,0.0,0.0,0.0,0.0,0.079,-0.806,10.86,0.0,0.0,0.0,0.0,0.0,0.0,0.0,0.0,0.0
1576083259506690460,208,0,,0.0,0.0,0.0,0.0,0.0,0.0,0.0,0.0,0.0,0.0,0.0,0.0,0.0,-0.128,0.08,0.21,0.0,0.0,0.0,0.0,0.0,0.0,0.0,0.0,0.0,-1.588,-1.358,10.3,0.0,0.0,0.0,0.0,0.0,0.0,0.0,0.0,0.0
1576083259570895239,209,0,,0.0,0.0,0.0,0.0,0.0,0.0,0.0,0.0,0.0,0.0,0.0,0.0,0.0,-0.026,-0.006,0.2,0.0,0.0,0.0,0.0,0.0,0.0,0.0,0.0,0.0,-0.777,0.086,8.41,0.0,0.0,0.0,0.0,0.0,0.0,0.0,0.0,0.0
1576083259638720410,210,0,,0.0,0.0,0.0,0.0,0.0,0.0,0.0,0.0,0.0,0.0,0.0,0.0,0.0,-0.033,0.078,0.43,0.0,0.0,0.0,0.0,0.0,0.0,0.0,0.0,0.0,0.145,-0.138,9.12,0.0,0.0,0.0,0.0,0.0,0.0,0.0,0.0,0.0
1576083259704421012,211,0,,0.0,0.0,0.0,0.0,0.0,0.0,0.0,0.0,0.0,0.0,0.0,0.0,0.0,0.022,-0.013,0.45,0.0,0.0,0.0,0.0,0.0,0.0,0.0,0.0,0.0,-1.317,-1.291,7.83,0.0,0.0,0.0,0.0,0.0,0.0,0.0,0.0,0.0
1576083259840051661,212,0,,0.0,0.0,0.0,0.0,0.0,0.0,0.0,0.0,0.0,0.0,0.0,0.0,0.0,0.093,-0.06,0.41,0.0,0.0,0.0,0.0,0.0,0.0,0.0,0.0,0.0,0.511,-0.34,14.67,0.0,0.0,0.0,0.0,0.0,0.0,0.0,0.0,0.0
1576083259907191281,213,0,,0.0,0.0,0.0,0.0,0.0,0.0,0.0,0.0,0.0,0.0,0.0,0.0,0.0,0.102,0.009,0.43,0.0,0.0,0.0,0.0,0.0,0.0,0.0,0.0,0.0,-0.319,-0.043,8.26,0.0,0.0,0.0,0.0,0.0,0.0,0.0,0.0,0.0
1576083259973675971,214,0,,0.0,0.0,0.0,0.0,0.0,0.0,0.0,0.0,0.0,0.0,0.0,0.0,0.0,-0.062,-0.004,0.33,0.0,0.0,0.0,0.0,0.0,0.0,0.0,0.0,0.0,-0.48,-0.298,10.18,0.0,0.0,0.0,0.0,0.0,0.0,0.0,0.0,0.0
1576083260030273847,215,0,,0.0,0.0,0.0,0.0,0.0,0.0,0.0,0.0,0.0,0.0,0.0,0.0,0.0,-0.013,-0.027,0.28,0.0,0.0,0.0,0.0,0.0,0.0,0.0,0.0,0.0,-0.344,0.023,9.98,0.0,0.0,0.0,0.0,0.0,0.0,0.0,0.0,0.0
1576083260098699586,216,0,,0.0,0.0,0.0,0.0,0.0,0.0,0.0,0.0,0.0,0.0,0.0,0.0,0.0,-0.068,-0.012,0.34,0.0,0.0,0.0,0.0,0.0,0.0,0.0,0.0,0.0,-0.122,-0.607,7.92,0.0,0.0,0.0,0.0,0.0,0.0,0.0,0.0,0.0
1576083260170335601,217,0,,0.0,0.0,0.0,0.0,0.0,0.0,0.0,0.0,0.0,0.0,0.0,0.0,0.0,0.002,0.051,0.29,0.0,0.0,0.0,0.0,0.0,0.0,0.0,0.0,0.0,-1.229,-0.049,13.45,0.0,0.0,0.0,0.0,0.0,0.0,0.0,0.0,0.0
1576083260233140381,218,0,,0.0,0.0,0.0,0.0,0.0,0.0,0.0,0.0,0.0,0.0,0.0,0.0,0.0,-0.035,0.013,0.36,0.0,0.0,0.0,0.0,0.0,0.0,0.0,0.0,0.0,-1.245,-0.33,8.62,0.0,0.0,0.0,0.0,0.0,0.0,0.0,0.0,0.0
1576083260300137910,219,0,,0.0,0.0,0.0,0.0,0.0,0.0,0.0,0.0,0.0,0.0,0.0,0.0,0.0,-0.04,-0.063,0.31,0.0,0.0,0.0,0.0,0.0,0.0,0.0,0.0,0.0,0.224,0.017,5.34,0.0,0.0,0.0,0.0,0.0,0.0,0.0,0.0,0.0
1576083260374084717,220,0,,0.0,0.0,0.0,0.0,0.0,0.0,0.0,0.0,0.0,0.0,0.0,0.0,0.0,-0.076,-0.047,0.3,0.0,0.0,0.0,0.0,0.0,0.0,0.0,0.0,0.0,-0.497,0.004,9.42,0.0,0.0,0.0,0.0,0.0,0.0,0.0,0.0,0.0
1576083260434262338,221,0,,0.0,0.0,0.0,0.0,0.0,0.0,0.0,0.0,0.0,0.0,0.0,0.0,0.0,-0.078,-0.044,0.28,0.0,0.0,0.0,0.0,0.0,0.0,0.0,0.0,0.0,-0.959,-2.135,11.25,0.0,0.0,0.0,0.0,0.0,0.0,0.0,0.0,0.0
1576083260502555667,222,0,,0.0,0.0,0.0,0.0,0.0,0.0,0.0,0.0,0.0,0.0,0.0,0.0,0.0,0.024,0.027,0.31,0.0,0.0,0.0,0.0,0.0,0.0,0.0,0.0,0.0,0.005,1.816,9.28,0.0,0.0,0.0,0.0,0.0,0.0,0.0,0.0,0.0
1576083260574792122,223,0,,0.0,0.0,0.0,0.0,0.0,0.0,0.0,0.0,0.0,0.0,0.0,0.0,0.0,0.027,-0.002,0.41,0.0,0.0,0.0,0.0,0.0,0.0,0.0,0.0,0.0,-1.686,-1.294,11.36,0.0,0.0,0.0,0.0,0.0,0.0,0.0,0.0,0.0
1576083260636407832,224,0,,0.0,0.0,0.0,0.0,0.0,0.0,0.0,0.0,0.0,0.0,0.0,0.0,0.0,0.008,-0.122,0.38,0.0,0.0,0.0,0.0,0.0,0.0,0.0,0.0,0.0,0.886,-0.288,12.61,0.0,0.0,0.0,0.0,0.0,0.0,0.0,0.0,0.0
1576083260709748379,225,0,,0.0,0.0,0.0,0.0,0.0,0.0,0.0,0.0,0.0,0.0,0.0,0.0,0.0,-0.045,-0.019,0.19,0.0,0.0,0.0,0.0,0.0,0.0,0.0,0.0,0.0,-1.503,-4.098,20.65,0.0,0.0,0.0,0.0,0.0,0.0,0.0,0.0,0.0
1576083260771293758,226,0,,0.0,0.0,0.0,0.0,0.0,0.0,0.0,0.0,0.0,0.0,0.0,0.0,0.0,-0.072,0.063,0.05,0.0,0.0,0.0,0.0,0.0,0.0,0.0,0.0,0.0,0.235,-0.139,4.01,0.0,0.0,0.0,0.0,0.0,0.0,0.0,0.0,0.0
1576083260838003463,227,0,,0.0,0.0,0.0,0.0,0.0,0.0,0.0,0.0,0.0,0.0,0.0,0.0,0.0,-0.029,0.043,0.13,0.0,0.0,0.0,0.0,0.0,0.0,0.0,0.0,0.0,-0.955,0.334,9.72,0.0,0.0,0.0,0.0,0.0,0.0,0.0,0.0,0.0
1576083260908997868,228,0,,0.0,0.0,0.0,0.0,0.0,0.0,0.0,0.0,0.0,0.0,0.0,0.0,0.0,0.021,0.004,0.18,0.0,0.0,0.0,0.0,0.0,0.0,0.0,0.0,0.0,-0.14,0.169,4.46,0.0,0.0,0.0,0.0,0.0,0.0,0.0,0.0,0.0
1576083260971092651,229,0,,0.0,0.0,0.0,0.0,0.0,0.0,0.0,0.0,0.0,0.0,0.0,0.0,0.0,0.036,-0.103,0.11,0.0,0.0,0.0,0.0,0.0,0.0,0.0,0.0,0.0,-1.344,-1.36,6.56,0.0,0.0,0.0,0.0,0.0,0.0,0.0,0.0,0.0
1576083261040331902,230,0,,0.0,0.0,0.0,0.0,0.0,0.0,0.0,0.0,0.0,0.0,0.0,0.0,0.0,0.089,0.06,0.11,0.0,0.0,0.0,0.0,0.0,0.0,0.0,0.0,0.0,1.347,3.541,13.5,0.0,0.0,0.0,0.0,0.0,0.0,0.0,0.0,0.0
1576083261105386212,231,0,,0.0,0.0,0.0,0.0,0.0,0.0,0.0,0.0,0.0,0.0,0.0,0.0,0.0,-0.059,0.015,0.12,0.0,0.0,0.0,0.0,0.0,0.0,0.0,0.0,0.0,-0.718,-0.738,5.7,0.0,0.0,0.0,0.0,0.0,0.0,0.0,0.0,0.0
1576083261171147859,232,0,,0.0,0.0,0.0,0.0,0.0,0.0,0.0,0.0,0.0,0.0,0.0,0.0,0.0,-0.012,0.007,0.11,0.0,0.0,0.0,0.0,0.0,0.0,0.0,0.0,0.0,0.429,1.133,9.6,0.0,0.0,0.0,0.0,0.0,0.0,0.0,0.0,0.0
1576083261298995287,233,0,,0.0,0.0,0.0,0.0,0.0,0.0,0.0,0.0,0.0,0.0,0.0,0.0,0.0,-0.027,-0.009,0.07,0.0,0.0,0.0,0.0,0.0,0.0,0.0,0.0,0.0,-0.041,-0.175,9.38,0.0,0.0,0.0,0.0,0.0,0.0,0.0,0.0,0.0
1576083261368048134,234,0,,0.0,0.0,0.0,0.0,0.0,0.0,0.0,0.0,0.0,0.0,0.0,0.0,0.0,0.006,-0.015,0.08,0.0,0.0,0.0,0.0,0.0,0.0,0.0,0.0,0.0,0.359,0.012,10.37,0.0,0.0,0.0,0.0,0.0,0.0,0.0,0.0,0.0
1576083261429791920,235,0,,0.0,0.0,0.0,0.0,0.0,0.0,0.0,0.0,0.0,0.0,0.0,0.0,0.0,0.013,0.007,0.12,0.0,0.0,0.0,0.0,0.0,0.0,0.0,0.0,0.0,0.045,0.539,9.6,0.0,0.0,0.0,0.0,0.0,0.0,0.0,0.0,0.0
1576083261498914328,236,0,,0.0,0.0,0.0,0.0,0.0,0.0,0.0,0.0,0.0,0.0,0.0,0.0,0.0,0.001,0.004,0.09,0.0,0.0,0.0,0.0,0.0,0.0,0.0,0.0,0.0,-0.324,0.122,8.36,0.0,0.0,0.0,0.0,0.0,0.0,0.0,0.0,0.0
1576083261567475671,237,0,,0.0,0.0,0.0,0.0,0.0,0.0,0.0,0.0,0.0,0.0,0.0,0.0,0.0,-0.002,-0.007,0.06,0.0,0.0,0.0,0.0,0.0,0.0,0.0,0.0,0.0,-0.509,-0.861,5.25,0.0,0.0,0.0,0.0,0.0,0.0,0.0,0.0,0.0
1576083261632195340,238,0,,0.0,0.0,0.0,0.0,0.0,0.0,0.0,0.0,0.0,0.0,0.0,0.0,0.0,-0.002,-0.007,0.05,0.0,0.0,0.0,0.0,0.0,0.0,0.0,0.0,0.0,0.461,0.652,13.51,0.0,0.0,0.0,0.0,0.0,0.0,0.0,0.0,0.0
1576083261701793153,239,0,,0.0,0.0,0.0,0.0,0.0,0.0,0.0,0.0,0.0,0.0,0.0,0.0,0.0,0.013,-0.005,0.06,0.0,0.0,0.0,0.0,0.0,0.0,0.0,0.0,0.0,-0.408,-0.223,5.14,0.0,0.0,0.0,0.0,0.0,0.0,0.0,0.0,0.0
1576083261768191969,240,0,,0.0,0.0,0.0,0.0,0.0,0.0,0.0,0.0,0.0,0.0,0.0,0.0,0.0,0.002,0.001,0.05,0.0,0.0,0.0,0.0,0.0,0.0,0.0,0.0,0.0,-0.4,0.437,10.9,0.0,0.0,0.0,0.0,0.0,0.0,0.0,0.0,0.0
1576083261834200248,241,0,,0.0,0.0,0.0,0.0,0.0,0.0,0.0,0.0,0.0,0.0,0.0,0.0,0.0,-0.012,-0.007,0.02,0.0,0.0,0.0,0.0,0.0,0.0,0.0,0.0,0.0,-0.006,0.265,9.94,0.0,0.0,0.0,0.0,0.0,0.0,0.0,0.0,0.0
1576083261907146270,242,0,,0.0,0.0,0.0,0.0,0.0,0.0,0.0,0.0,0.0,0.0,0.0,0.0,0.0,-0.004,-0.009,0.01,0.0,0.0,0.0,0.0,0.0,0.0,0.0,0.0,0.0,-0.374,-0.662,8.77,0.0,0.0,0.0,0.0,0.0,0.0,0.0,0.0,0.0
1576083261976092678,243,0,,0.0,0.0,0.0,0.0,0.0,0.0,0.0,0.0,0.0,0.0,0.0,0.0,0.0,-0.007,0.005,0.0,0.0,0.0,0.0,0.0,0.0,0.0,0.0,0.0,0.0,-0.005,-0.345,10.41,0.0,0.0,0.0,0.0,0.0,0.0,0.0,0.0,0.0
1576083262035232158,244,0,,0.0,0.0,0.0,0.0,0.0,0.0,0.0,0.0,0.0,0.0,0.0,0.0,0.0,-0.011,-0.003,-0.01,0.0,0.0,0.0,0.0,0.0,0.0,0.0,0.0,0.0,0.217,-0.404,9.8,0.0,0.0,0.0,0.0,0.0,0.0,0.0,0.0,0.0
1576083262117057457,245,0,,0.0,0.0,0.0,0.0,0.0,0.0,0.0,0.0,0.0,0.0,0.0,0.0,0.0,0.0,-0.003,0.01,0.0,0.0,0.0,0.0,0.0,0.0,0.0,0.0,0.0,-0.744,-0.282,7.9,0.0,0.0,0.0,0.0,0.0,0.0,0.0,0.0,0.0
1576083262239196331,246,0,,0.0,0.0,0.0,0.0,0.0,0.0,0.0,0.0,0.0,0.0,0.0,0.0,0.0,-0.16,0.02,0.07,0.0,0.0,0.0,0.0,0.0,0.0,0.0,0.0,0.0,-0.43,-0.402,6.45,0.0,0.0,0.0,0.0,0.0,0.0,0.0,0.0,0.0
1576083262308316404,247,0,,0.0,0.0,0.0,0.0,0.0,0.0,0.0,0.0,0.0,0.0,0.0,0.0,0.0,0.126,-0.081,0.04,0.0,0.0,0.0,0.0,0.0,0.0,0.0,0.0,0.0,-0.714,-0.22,18.13,0.0,0.0,0.0,0.0,0.0,0.0,0.0,0.0,0.0
1576083262376928653,248,0,,0.0,0.0,0.0,0.0,0.0,0.0,0.0,0.0,0.0,0.0,0.0,0.0,0.0,0.069,0.048,-0.0,0.0,0.0,0.0,0.0,0.0,0.0,0.0,0.0,0.0,0.072,0.113,8.24,0.0,0.0,0.0,0.0,0.0,0.0,0.0,0.0,0.0
1576083262439197024,249,0,,0.0,0.0,0.0,0.0,0.0,0.0,0.0,0.0,0.0,0.0,0.0,0.0,0.0,0.031,0.164,0.03,0.0,0.0,0.0,0.0,0.0,0.0,0.0,0.0,0.0,0.607,1.141,5.4,0.0,0.0,0.0,0.0,0.0,0.0,0.0,0.0,0.0
1576083262563580490,250,0,,0.0,0.0,0.0,0.0,0.0,0.0,0.0,0.0,0.0,0.0,0.0,0.0,0.0,-0.01,-0.224,0.08,0.0,0.0,0.0,0.0,0.0,0.0,0.0,0.0,0.0,-0.291,-0.417,4.05,0.0,0.0,0.0,0.0,0.0,0.0,0.0,0.0,0.0
1576083262629198452,251,0,,0.0,0.0,0.0,0.0,0.0,0.0,0.0,0.0,0.0,0.0,0.0,0.0,0.0,0.001,0.015,0.13,0.0,0.0,0.0,0.0,0.0,0.0,0.0,0.0,0.0,0.962,1.378,8.8,0.0,0.0,0.0,0.0,0.0,0.0,0.0,0.0,0.0
1576083262698054037,252,0,,0.0,0.0,0.0,0.0,0.0,0.0,0.0,0.0,0.0,0.0,0.0,0.0,0.0,-0.021,0.036,0.08,0.0,0.0,0.0,0.0,0.0,0.0,0.0,0.0,0.0,0.322,0.324,2.15,0.0,0.0,0.0,0.0,0.0,0.0,0.0,0.0,0.0
1576083262769802609,253,0,,0.0,0.0,0.0,0.0,0.0,0.0,0.0,0.0,0.0,0.0,0.0,0.0,0.0,-0.067,-0.031,0.02,0.0,0.0,0.0,0.0,0.0,0.0,0.0,0.0,0.0,0.812,1.785,12.39,0.0,0.0,0.0,0.0,0.0,0.0,0.0,0.0,0.0
1576083262831233584,254,0,,0.0,0.0,0.0,0.0,0.0,0.0,0.0,0.0,0.0,0.0,0.0,0.0,0.0,-0.027,0.018,-0.1,0.0,0.0,0.0,0.0,0.0,0.0,0.0,0.0,0.0,-0.242,-0.527,11.99,0.0,0.0,0.0,0.0,0.0,0.0,0.0,0.0,0.0
1576083262898886334,255,0,,0.0,0.0,0.0,0.0,0.0,0.0,0.0,0.0,0.0,0.0,0.0,0.0,0.0,-0.031,0.005,-0.14,0.0,0.0,0.0,0.0,0.0,0.0,0.0,0.0,0.0,-0.564,0.035,9.63,0.0,0.0,0.0,0.0,0.0,0.0,0.0,0.0,0.0
1576083262967230755,256,0,,0.0,0.0,0.0,0.0,0.0,0.0,0.0,0.0,0.0,0.0,0.0,0.0,0.0,-0.022,0.005,-0.1,0.0,0.0,0.0,0.0,0.0,0.0,0.0,0.0,0.0,-0.314,-0.652,11.49,0.0,0.0,0.0,0.0,0.0,0.0,0.0,0.0,0.0
1576083263043394631,257,0,,0.0,0.0,0.0,0.0,0.0,0.0,0.0,0.0,0.0,0.0,0.0,0.0,0.0,-0.018,-0.0,-0.06,0.0,0.0,0.0,0.0,0.0,0.0,0.0,0.0,0.0,-0.179,0.302,11.89,0.0,0.0,0.0,0.0,0.0,0.0,0.0,0.0,0.0
1576083263103450531,258,0,,0.0,0.0,0.0,0.0,0.0,0.0,0.0,0.0,0.0,0.0,0.0,0.0,0.0,0.017,-0.003,-0.04,0.0,0.0,0.0,0.0,0.0,0.0,0.0,0.0,0.0,-0.281,-0.555,9.47,0.0,0.0,0.0,0.0,0.0,0.0,0.0,0.0,0.0
1576083263168073127,259,0,,0.0,0.0,0.0,0.0,0.0,0.0,0.0,0.0,0.0,0.0,0.0,0.0,0.0,0.014,-0.02,-0.05,0.0,0.0,0.0,0.0,0.0,0.0,0.0,0.0,0.0,-0.359,-0.072,10.72,0.0,0.0,0.0,0.0,0.0,0.0,0.0,0.0,0.0
1576083263236910658,260,0,,0.0,0.0,0.0,0.0,0.0,0.0,0.0,0.0,0.0,0.0,0.0,0.0,0.0,0.008,0.006,-0.05,0.0,0.0,0.0,0.0,0.0,0.0,0.0,0.0,0.0,-0.093,-0.871,11.5,0.0,0.0,0.0,0.0,0.0,0.0,0.0,0.0,0.0
1576083263302617232,261,0,,0.0,0.0,0.0,0.0,0.0,0.0,0.0,0.0,0.0,0.0,0.0,0.0,0.0,0.012,-0.024,-0.07,0.0,0.0,0.0,0.0,0.0,0.0,0.0,0.0,0.0,0.287,-0.184,6.45,0.0,0.0,0.0,0.0,0.0,0.0,0.0,0.0,0.0
1576083263390124300,262,0,,0.0,0.0,0.0,0.0,0.0,0.0,0.0,0.0,0.0,0.0,0.0,0.0,0.0,0.031,0.006,-0.04,0.0,0.0,0.0,0.0,0.0,0.0,0.0,0.0,0.0,-0.094,-0.355,6.12,0.0,0.0,0.0,0.0,0.0,0.0,0.0,0.0,0.0
1576083263436670388,263,0,,0.0,0.0,0.0,0.0,0.0,0.0,0.0,0.0,0.0,0.0,0.0,0.0,0.0,0.03,-0.008,0.0,0.0,0.0,0.0,0.0,0.0,0.0,0.0,0.0,0.0,-0.487,-0.408,11.96,0.0,0.0,0.0,0.0,0.0,0.0,0.0,0.0,0.0
1576083263505353238,264,0,,0.0,0.0,0.0,0.0,0.0,0.0,0.0,0.0,0.0,0.0,0.0,0.0,0.0,0.043,-0.02,0.03,0.0,0.0,0.0,0.0,0.0,0.0,0.0,0.0,0.0,-0.275,-0.144,6.92,0.0,0.0,0.0,0.0,0.0,0.0,0.0,0.0,0.0
1576083263570310253,265,0,,0.0,0.0,0.0,0.0,0.0,0.0,0.0,0.0,0.0,0.0,0.0,0.0,0.0,0.01,-0.009,0.05,0.0,0.0,0.0,0.0,0.0,0.0,0.0,0.0,0.0,0.102,0.123,10.2,0.0,0.0,0.0,0.0,0.0,0.0,0.0,0.0,0.0
1576083263638657424,266,0,,0.0,0.0,0.0,0.0,0.0,0.0,0.0,0.0,0.0,0.0,0.0,0.0,0.0,-0.006,-0.019,0.04,0.0,0.0,0.0,0.0,0.0,0.0,0.0,0.0,0.0,-0.302,-0.504,8.55,0.0,0.0,0.0,0.0,0.0,0.0,0.0,0.0,0.0
1576083263706616378,267,0,,0.0,0.0,0.0,0.0,0.0,0.0,0.0,0.0,0.0,0.0,0.0,0.0,0.0,-0.005,0.003,0.03,0.0,0.0,0.0,0.0,0.0,0.0,0.0,0.0,0.0,-0.171,-0.506,7.19,0.0,0.0,0.0,0.0,0.0,0.0,0.0,0.0,0.0
1576083263831049107,268,0,,0.0,0.0,0.0,0.0,0.0,0.0,0.0,0.0,0.0,0.0,0.0,0.0,0.0,-0.023,0.007,0.03,0.0,0.0,0.0,0.0,0.0,0.0,0.0,0.0,0.0,0.091,-0.742,9.38,0.0,0.0,0.0,0.0,0.0,0.0,0.0,0.0,0.0
1576083263897390465,269,0,,0.0,0.0,0.0,0.0,0.0,0.0,0.0,0.0,0.0,0.0,0.0,0.0,0.0,0.022,-0.012,0.04,0.0,0.0,0.0,0.0,0.0,0.0,0.0,0.0,0.0,-0.403,0.993,9.21,0.0,0.0,0.0,0.0,0.0,0.0,0.0,0.0,0.0
1576083263965997146,270,0,,0.0,0.0,0.0,0.0,0.0,0.0,0.0,0.0,0.0,0.0,0.0,0.0,0.0,0.04,0.14,0.01,0.0,0.0,0.0,0.0,0.0,0.0,0.0,0.0,0.0,-1.245,-4.133,8.93,0.0,0.0,0.0,0.0,0.0,0.0,0.0,0.0,0.0
1576083264033081388,271,0,,0.0,0.0,0.0,0.0,0.0,0.0,0.0,0.0,0.0,0.0,0.0,0.0,0.0,-0.123,-0.15,0.0,0.0,0.0,0.0,0.0,0.0,0.0,0.0,0.0,0.0,1.042,0.137,11.2,0.0,0.0,0.0,0.0,0.0,0.0,0.0,0.0,0.0
1576083264102996840,272,0,,0.0,0.0,0.0,0.0,0.0,0.0,0.0,0.0,0.0,0.0,0.0,0.0,0.0,-0.031,0.01,0.05,0.0,0.0,0.0,0.0,0.0,0.0,0.0,0.0,0.0,-0.056,-0.769,11.99,0.0,0.0,0.0,0.0,0.0,0.0,0.0,0.0,0.0
1576083264169318263,273,0,,0.0,0.0,0.0,0.0,0.0,0.0,0.0,0.0,0.0,0.0,0.0,0.0,0.0,-0.07,0.007,0.03,0.0,0.0,0.0,0.0,0.0,0.0,0.0,0.0,0.0,1.222,-0.811,12.24,0.0,0.0,0.0,0.0,0.0,0.0,0.0,0.0,0.0
1576083264235552604,274,0,,0.0,0.0,0.0,0.0,0.0,0.0,0.0,0.0,0.0,0.0,0.0,0.0,0.0,-0.04,0.003,0.02,0.0,0.0,0.0,0.0,0.0,0.0,0.0,0.0,0.0,-1.008,-1.103,11.84,0.0,0.0,0.0,0.0,0.0,0.0,0.0,0.0,0.0
1576083264303694315,275,0,,0.0,0.0,0.0,0.0,0.0,0.0,0.0,0.0,0.0,0.0,0.0,0.0,0.0,-0.027,0.049,0.06,0.0,0.0,0.0,0.0,0.0,0.0,0.0,0.0,0.0,-0.288,-0.523,8.36,0.0,0.0,0.0,0.0,0.0,0.0,0.0,0.0,0.0
1576083264369241068,276,0,,0.0,0.0,0.0,0.0,0.0,0.0,0.0,0.0,0.0,0.0,0.0,0.0,0.0,0.01,-0.0,0.1,0.0,0.0,0.0,0.0,0.0,0.0,0.0,0.0,0.0,-0.302,-0.834,9.97,0.0,0.0,0.0,0.0,0.0,0.0,0.0,0.0,0.0
1576083264433591285,277,0,,0.0,0.0,0.0,0.0,0.0,0.0,0.0,0.0,0.0,0.0,0.0,0.0,0.0,0.047,-0.021,0.14,0.0,0.0,0.0,0.0,0.0,0.0,0.0,0.0,0.0,-0.114,-0.09,10.87,0.0,0.0,0.0,0.0,0.0,0.0,0.0,0.0,0.0
1576083264503466337,278,0,,0.0,0.0,0.0,0.0,0.0,0.0,0.0,0.0,0.0,0.0,0.0,0.0,0.0,0.044,-0.013,0.17,0.0,0.0,0.0,0.0,0.0,0.0,0.0,0.0,0.0,-0.301,-0.664,8.24,0.0,0.0,0.0,0.0,0.0,0.0,0.0,0.0,0.0
1576083264569523115,279,0,,0.0,0.0,0.0,0.0,0.0,0.0,0.0,0.0,0.0,0.0,0.0,0.0,0.0,-0.018,-0.015,0.09,0.0,0.0,0.0,0.0,0.0,0.0,0.0,0.0,0.0,0.255,0.221,11.98,0.0,0.0,0.0,0.0,0.0,0.0,0.0,0.0,0.0
1576083264702184073,280,0,,0.0,0.0,0.0,0.0,0.0,0.0,0.0,0.0,0.0,0.0,0.0,0.0,0.0,-0.052,0.003,-0.06,0.0,0.0,0.0,0.0,0.0,0.0,0.0,0.0,0.0,-0.036,-0.409,9.36,0.0,0.0,0.0,0.0,0.0,0.0,0.0,0.0,0.0
1576083264776900922,281,0,,0.0,0.0,0.0,0.0,0.0,0.0,0.0,0.0,0.0,0.0,0.0,0.0,0.0,0.006,-0.016,-0.09,0.0,0.0,0.0,0.0,0.0,0.0,0.0,0.0,0.0,-0.033,-0.293,11.17,0.0,0.0,0.0,0.0,0.0,0.0,0.0,0.0,0.0
1576083264837039895,282,0,,0.0,0.0,0.0,0.0,0.0,0.0,0.0,0.0,0.0,0.0,0.0,0.0,0.0,0.049,0.009,-0.13,0.0,0.0,0.0,0.0,0.0,0.0,0.0,0.0,0.0,-0.085,-1.525,12.0,0.0,0.0,0.0,0.0,0.0,0.0,0.0,0.0,0.0
1576083264906767886,283,0,,0.0,0.0,0.0,0.0,0.0,0.0,0.0,0.0,0.0,0.0,0.0,0.0,0.0,0.062,-0.024,-0.11,0.0,0.0,0.0,0.0,0.0,0.0,0.0,0.0,0.0,0.749,-0.489,9.89,0.0,0.0,0.0,0.0,0.0,0.0,0.0,0.0,0.0
1576083265029860227,284,0,,0.0,0.0,0.0,0.0,0.0,0.0,0.0,0.0,0.0,0.0,0.0,0.0,0.0,-0.001,-0.005,-0.05,0.0,0.0,0.0,0.0,0.0,0.0,0.0,0.0,0.0,0.191,-0.072,8.92,0.0,0.0,0.0,0.0,0.0,0.0,0.0,0.0,0.0
1576083265096635538,285,0,,0.0,0.0,0.0,0.0,0.0,0.0,0.0,0.0,0.0,0.0,0.0,0.0,0.0,0.018,-0.004,-0.04,0.0,0.0,0.0,0.0,0.0,0.0,0.0,0.0,0.0,0.453,-0.114,9.05,0.0,0.0,0.0,0.0,0.0,0.0,0.0,0.0,0.0
1576083265164122608,286,0,,0.0,0.0,0.0,0.0,0.0,0.0,0.0,0.0,0.0,0.0,0.0,0.0,0.0,-0.012,0.011,-0.03,0.0,0.0,0.0,0.0,0.0,0.0,0.0,0.0,0.0,0.129,-0.454,10.83,0.0,0.0,0.0,0.0,0.0,0.0,0.0,0.0,0.0
1576083265230121871,287,0,,0.0,0.0,0.0,0.0,0.0,0.0,0.0,0.0,0.0,0.0,0.0,0.0,0.0,0.004,-0.006,-0.02,0.0,0.0,0.0,0.0,0.0,0.0,0.0,0.0,0.0,-0.073,-0.197,1.83,0.0,0.0,0.0,0.0,0.0,0.0,0.0,0.0,0.0
1576083265300913247,288,0,,0.0,0.0,0.0,0.0,0.0,0.0,0.0,0.0,0.0,0.0,0.0,0.0,0.0,-0.074,0.101,-0.12,0.0,0.0,0.0,0.0,0.0,0.0,0.0,0.0,0.0,1.191,0.225,12.62,0.0,0.0,0.0,0.0,0.0,0.0,0.0,0.0,0.0
1576083265365119336,289,0,,0.0,0.0,0.0,0.0,0.0,0.0,0.0,0.0,0.0,0.0,0.0,0.0,0.0,0.047,-0.094,-0.15,0.0,0.0,0.0,0.0,0.0,0.0,0.0,0.0,0.0,-0.584,-0.931,9.78,0.0,0.0,0.0,0.0,0.0,0.0,0.0,0.0,0.0
1576083265432414384,290,0,,0.0,0.0,0.0,0.0,0.0,0.0,0.0,0.0,0.0,0.0,0.0,0.0,0.0,-0.024,0.019,-0.04,0.0,0.0,0.0,0.0,0.0,0.0,0.0,0.0,0.0,1.024,1.249,13.25,0.0,0.0,0.0,0.0,0.0,0.0,0.0,0.0,0.0
1576083265500582713,291,0,,0.0,0.0,0.0,0.0,0.0,0.0,0.0,0.0,0.0,0.0,0.0,0.0,0.0,-0.029,0.012,-0.04,0.0,0.0,0.0,0.0,0.0,0.0,0.0,0.0,0.0,1.0,-0.803,10.02,0.0,0.0,0.0,0.0,0.0,0.0,0.0,0.0,0.0
1576083265567021738,292,0,,0.0,0.0,0.0,0.0,0.0,0.0,0.0,0.0,0.0,0.0,0.0,0.0,0.0,0.033,-0.004,-0.07,0.0,0.0,0.0,0.0,0.0,0.0,0.0,0.0,0.0,-0.439,0.163,9.52,0.0,0.0,0.0,0.0,0.0,0.0,0.0,0.0,0.0
1576083265632314224,293,0,,0.0,0.0,0.0,0.0,0.0,0.0,0.0,0.0,0.0,0.0,0.0,0.0,0.0,0.021,0.0,0.04,0.0,0.0,0.0,0.0,0.0,0.0,0.0,0.0,0.0,-0.173,-1.334,9.06,0.0,0.0,0.0,0.0,0.0,0.0,0.0,0.0,0.0
1576083265706406964,294,0,,0.0,0.0,0.0,0.0,0.0,0.0,0.0,0.0,0.0,0.0,0.0,0.0,0.0,0.005,0.01,0.07,0.0,0.0,0.0,0.0,0.0,0.0,0.0,0.0,0.0,-0.214,-0.674,8.66,0.0,0.0,0.0,0.0,0.0,0.0,0.0,0.0,0.0
1576083265776109054,295,0,,0.0,0.0,0.0,0.0,0.0,0.0,0.0,0.0,0.0,0.0,0.0,0.0,0.0,-0.029,0.012,0.09,0.0,0.0,0.0,0.0,0.0,0.0,0.0,0.0,0.0,-0.486,0.145,8.43,0.0,0.0,0.0,0.0,0.0,0.0,0.0,0.0,0.0
1576083265838848803,296,0,,0.0,0.0,0.0,0.0,0.0,0.0,0.0,0.0,0.0,0.0,0.0,0.0,0.0,0.026,-0.022,0.02,0.0,0.0,0.0,0.0,0.0,0.0,0.0,0.0,0.0,-0.076,-0.609,12.95,0.0,0.0,0.0,0.0,0.0,0.0,0.0,0.0,0.0
1576083265906348198,297,0,,0.0,0.0,0.0,0.0,0.0,0.0,0.0,0.0,0.0,0.0,0.0,0.0,0.0,0.004,0.009,-0.02,0.0,0.0,0.0,0.0,0.0,0.0,0.0,0.0,0.0,0.933,0.225,8.0,0.0,0.0,0.0,0.0,0.0,0.0,0.0,0.0,0.0
1576083265974688057,298,0,,0.0,0.0,0.0,0.0,0.0,0.0,0.0,0.0,0.0,0.0,0.0,0.0,0.0,-0.045,-0.007,-0.06,0.0,0.0,0.0,0.0,0.0,0.0,0.0,0.0,0.0,0.054,-1.066,11.79,0.0,0.0,0.0,0.0,0.0,0.0,0.0,0.0,0.0
1576083266062373333,299,0,,0.0,0.0,0.0,0.0,0.0,0.0,0.0,0.0,0.0,0.0,0.0,0.0,0.0,0.009,0.011,-0.05,0.0,0.0,0.0,0.0,0.0,0.0,0.0,0.0,0.0,-0.86,-0.894,9.02,0.0,0.0,0.0,0.0,0.0,0.0,0.0,0.0,0.0
1576083266108196370,300,0,,0.0,0.0,0.0,0.0,0.0,0.0,0.0,0.0,0.0,0.0,0.0,0.0,0.0,0.013,-0.008,-0.06,0.0,0.0,0.0,0.0,0.0,0.0,0.0,0.0,0.0,0.197,-1.368,9.35,0.0,0.0,0.0,0.0,0.0,0.0,0.0,0.0,0.0
1576083266231130570,301,0,,0.0,0.0,0.0,0.0,0.0,0.0,0.0,0.0,0.0,0.0,0.0,0.0,0.0,0.013,0.008,-0.04,0.0,0.0,0.0,0.0,0.0,0.0,0.0,0.0,0.0,0.035,-0.225,10.09,0.0,0.0,0.0,0.0,0.0,0.0,0.0,0.0,0.0
1576083266299247488,302,0,,0.0,0.0,0.0,0.0,0.0,0.0,0.0,0.0,0.0,0.0,0.0,0.0,0.0,0.007,-0.01,0.01,0.0,0.0,0.0,0.0,0.0,0.0,0.0,0.0,0.0,-0.132,-0.11,6.87,0.0,0.0,0.0,0.0,0.0,0.0,0.0,0.0,0.0
1576083266366670489,303,0,,0.0,0.0,0.0,0.0,0.0,0.0,0.0,0.0,0.0,0.0,0.0,0.0,0.0,-0.016,0.003,0.05,0.0,0.0,0.0,0.0,0.0,0.0,0.0,0.0,0.0,-0.464,-1.04,10.28,0.0,0.0,0.0,0.0,0.0,0.0,0.0,0.0,0.0
1576083266431810175,304,0,,0.0,0.0,0.0,0.0,0.0,0.0,0.0,0.0,0.0,0.0,0.0,0.0,0.0,-0.019,0.019,0.07,0.0,0.0,0.0,0.0,0.0,0.0,0.0,0.0,0.0,-0.008,0.489,6.32,0.0,0.0,0.0,0.0,0.0,0.0,0.0,0.0,0.0
1576083266499936085,305,0,,0.0,0.0,0.0,0.0,0.0,0.0,0.0,0.0,0.0,0.0,0.0,0.0,0.0,-0.003,-0.011,0.11,0.0,0.0,0.0,0.0,0.0,0.0,0.0,0.0,0.0,-0.439,-1.842,1.27,0.0,0.0,0.0,0.0,0.0,0.0,0.0,0.0,0.0
1576083266566920983,306,0,,0.0,0.0,0.0,0.0,0.0,0.0,0.0,0.0,0.0,0.0,0.0,0.0,0.0,0.002,0.022,0.11,0.0,0.0,0.0,0.0,0.0,0.0,0.0,0.0,0.0,-0.443,-0.258,10.59,0.0,0.0,0.0,0.0,0.0,0.0,0.0,0.0,0.0
1576083266631835654,307,0,,0.0,0.0,0.0,0.0,0.0,0.0,0.0,0.0,0.0,0.0,0.0,0.0,0.0,0.037,0.02,0.12,0.0,0.0,0.0,0.0,0.0,0.0,0.0,0.0,0.0,-1.093,-1.02,11.32,0.0,0.0,0.0,0.0,0.0,0.0,0.0,0.0,0.0
1576083266703232213,308,0,,0.0,0.0,0.0,0.0,0.0,0.0,0.0,0.0,0.0,0.0,0.0,0.0,0.0,-0.002,-0.011,0.08,0.0,0.0,0.0,0.0,0.0,0.0,0.0,0.0,0.0,-0.125,-0.791,6.26,0.0,0.0,0.0,0.0,0.0,0.0,0.0,0.0,0.0
1576083266769855868,309,0,,0.0,0.0,0.0,0.0,0.0,0.0,0.0,0.0,0.0,0.0,0.0,0.0,0.0,-0.104,0.069,0.03,0.0,0.0,0.0,0.0,0.0,0.0,0.0,0.0,0.0,-0.189,-1.095,10.46,0.0,0.0,0.0,0.0,0.0,0.0,0.0,0.0,0.0
1576083266844568581,310,0,,0.0,0.0,0.0,0.0,0.0,0.0,0.0,0.0,0.0,0.0,0.0,0.0,0.0,0.103,-0.053,0.07,0.0,0.0,0.0,0.0,0.0,0.0,0.0,0.0,0.0,0.411,0.255,9.55,0.0,0.0,0.0,0.0,0.0,0.0,0.0,0.0,0.0
1576083266904795617,311,0,,0.0,0.0,0.0,0.0,0.0,0.0,0.0,0.0,0.0,0.0,0.0,0.0,0.0,0.032,-0.015,0.1,0.0,0.0,0.0,0.0,0.0,0.0,0.0,0.0,0.0,0.406,-0.368,7.68,0.0,0.0,0.0,0.0,0.0,0.0,0.0,0.0,0.0
1576083266976004785,312,0,,0.0,0.0,0.0,0.0,0.0,0.0,0.0,0.0,0.0,0.0,0.0,0.0,0.0,-0.029,0.008,0.03,0.0,0.0,0.0,0.0,0.0,0.0,0.0,0.0,0.0,0.79,-0.297,7.78,0.0,0.0,0.0,0.0,0.0,0.0,0.0,0.0,0.0
1576083267037360616,313,0,,0.0,0.0,0.0,0.0,0.0,0.0,0.0,0.0,0.0,0.0,0.0,0.0,0.0,0.004,-0.01,0.0,0.0,0.0,0.0,0.0,0.0,0.0,0.0,0.0,0.0,0.609,-1.219,7.49,0.0,0.0,0.0,0.0,0.0,0.0,0.0,0.0,0.0
1576083267106112538,314,0,,0.0,0.0,0.0,0.0,0.0,0.0,0.0,0.0,0.0,0.0,0.0,0.0,0.0,-0.031,0.021,-0.05,0.0,0.0,0.0,0.0,0.0,0.0,0.0,0.0,0.0,-0.242,0.182,7.69,0.0,0.0,0.0,0.0,0.0,0.0,0.0,0.0,0.0
1576083267174873523,315,0,,0.0,0.0,0.0,0.0,0.0,0.0,0.0,0.0,0.0,0.0,0.0,0.0,0.0,-0.042,-0.012,-0.07,0.0,0.0,0.0,0.0,0.0,0.0,0.0,0.0,0.0,0.463,-0.587,8.19,0.0,0.0,0.0,0.0,0.0,0.0,0.0,0.0,0.0
1576083267265362173,316,0,,0.0,0.0,0.0,0.0,0.0,0.0,0.0,0.0,0.0,0.0,0.0,0.0,0.0,-0.021,0.009,-0.05,0.0,0.0,0.0,0.0,0.0,0.0,0.0,0.0,0.0,0.564,-0.031,8.89,0.0,0.0,0.0,0.0,0.0,0.0,0.0,0.0,0.0
1576083267380179459,317,0,,0.0,0.0,0.0,0.0,0.0,0.0,0.0,0.0,0.0,0.0,0.0,0.0,0.0,-0.005,0.0,-0.05,0.0,0.0,0.0,0.0,0.0,0.0,0.0,0.0,0.0,-0.451,-0.702,10.85,0.0,0.0,0.0,0.0,0.0,0.0,0.0,0.0,0.0
1576083267431675801,318,0,,0.0,0.0,0.0,0.0,0.0,0.0,0.0,0.0,0.0,0.0,0.0,0.0,0.0,0.007,-0.029,-0.07,0.0,0.0,0.0,0.0,0.0,0.0,0.0,0.0,0.0,0.178,-0.408,9.36,0.0,0.0,0.0,0.0,0.0,0.0,0.0,0.0,0.0
1576083267502657376,319,0,,0.0,0.0,0.0,0.0,0.0,0.0,0.0,0.0,0.0,0.0,0.0,0.0,0.0,0.035,-0.007,-0.08,0.0,0.0,0.0,0.0,0.0,0.0,0.0,0.0,0.0,0.695,-0.715,6.21,0.0,0.0,0.0,0.0,0.0,0.0,0.0,0.0,0.0
1576083267566788497,320,0,,0.0,0.0,0.0,0.0,0.0,0.0,0.0,0.0,0.0,0.0,0.0,0.0,0.0,0.024,0.003,-0.07,0.0,0.0,0.0,0.0,0.0,0.0,0.0,0.0,0.0,-0.99,-1.214,10.78,0.0,0.0,0.0,0.0,0.0,0.0,0.0,0.0,0.0
1576083267635231348,321,0,,0.0,0.0,0.0,0.0,0.0,0.0,0.0,0.0,0.0,0.0,0.0,0.0,0.0,0.072,-0.007,-0.04,0.0,0.0,0.0,0.0,0.0,0.0,0.0,0.0,0.0,0.277,0.005,8.07,0.0,0.0,0.0,0.0,0.0,0.0,0.0,0.0,0.0
1576083267700191842,322,0,,0.0,0.0,0.0,0.0,0.0,0.0,0.0,0.0,0.0,0.0,0.0,0.0,0.0,0.029,-0.001,0.01,0.0,0.0,0.0,0.0,0.0,0.0,0.0,0.0,0.0,-0.128,0.891,11.3,0.0,0.0,0.0,0.0,0.0,0.0,0.0,0.0,0.0
1576083267766131114,323,0,,0.0,0.0,0.0,0.0,0.0,0.0,0.0,0.0,0.0,0.0,0.0,0.0,0.0,-0.08,-0.043,0.07,0.0,0.0,0.0,0.0,0.0,0.0,0.0,0.0,0.0,0.028,-3.614,14.19,0.0,0.0,0.0,0.0,0.0,0.0,0.0,0.0,0.0
1576083267833156172,324,0,,0.0,0.0,0.0,0.0,0.0,0.0,0.0,0.0,0.0,0.0,0.0,0.0,0.0,-0.098,0.043,0.14,0.0,0.0,0.0,0.0,0.0,0.0,0.0,0.0,0.0,1.263,0.77,14.53,0.0,0.0,0.0,0.0,0.0,0.0,0.0,0.0,0.0
1576083267901001619,325,0,,0.0,0.0,0.0,0.0,0.0,0.0,0.0,0.0,0.0,0.0,0.0,0.0,0.0,0.049,-0.006,0.08,0.0,0.0,0.0,0.0,0.0,0.0,0.0,0.0,0.0,-1.088,-0.932,8.16,0.0,0.0,0.0,0.0,0.0,0.0,0.0,0.0,0.0
1576083267970548285,326,0,,0.0,0.0,0.0,0.0,0.0,0.0,0.0,0.0,0.0,0.0,0.0,0.0,0.0,-0.014,-0.002,0.12,0.0,0.0,0.0,0.0,0.0,0.0,0.0,0.0,0.0,0.186,-1.297,5.77,0.0,0.0,0.0,0.0,0.0,0.0,0.0,0.0,0.0
1576083268037063290,327,0,,0.0,0.0,0.0,0.0,0.0,0.0,0.0,0.0,0.0,0.0,0.0,0.0,0.0,0.154,-0.03,-0.04,0.0,0.0,0.0,0.0,0.0,0.0,0.0,0.0,0.0,0.604,1.794,8.95,0.0,0.0,0.0,0.0,0.0,0.0,0.0,0.0,0.0
1576083268102717609,328,0,,0.0,0.0,0.0,0.0,0.0,0.0,0.0,0.0,0.0,0.0,0.0,0.0,0.0,-0.108,0.028,-0.04,0.0,0.0,0.0,0.0,0.0,0.0,0.0,0.0,0.0,-2.828,-1.735,11.55,0.0,0.0,0.0,0.0,0.0,0.0,0.0,0.0,0.0
1576083268169160975,329,0,,0.0,0.0,0.0,0.0,0.0,0.0,0.0,0.0,0.0,0.0,0.0,0.0,0.0,-0.02,-0.006,0.14,0.0,0.0,0.0,0.0,0.0,0.0,0.0,0.0,0.0,2.08,1.432,9.2,0.0,0.0,0.0,0.0,0.0,0.0,0.0,0.0,0.0
1576083268262273754,330,0,,0.0,0.0,0.0,0.0,0.0,0.0,0.0,0.0,0.0,0.0,0.0,0.0,0.0,-0.013,0.015,0.09,0.0,0.0,0.0,0.0,0.0,0.0,0.0,0.0,0.0,0.139,-1.138,7.2,0.0,0.0,0.0,0.0,0.0,0.0,0.0,0.0,0.0
1576083268303681597,331,0,,0.0,0.0,0.0,0.0,0.0,0.0,0.0,0.0,0.0,0.0,0.0,0.0,0.0,0.017,0.009,0.09,0.0,0.0,0.0,0.0,0.0,0.0,0.0,0.0,0.0,-0.645,0.028,5.61,0.0,0.0,0.0,0.0,0.0,0.0,0.0,0.0,0.0
1576083268463300764,332,0,,0.0,0.0,0.0,0.0,0.0,0.0,0.0,0.0,0.0,0.0,0.0,0.0,0.0,0.037,-0.011,0.05,0.0,0.0,0.0,0.0,0.0,0.0,0.0,0.0,0.0,0.051,-0.582,13.57,0.0,0.0,0.0,0.0,0.0,0.0,0.0,0.0,0.0
1576083268513876004,333,0,,0.0,0.0,0.0,0.0,0.0,0.0,0.0,0.0,0.0,0.0,0.0,0.0,0.0,0.043,-0.003,0.03,0.0,0.0,0.0,0.0,0.0,0.0,0.0,0.0,0.0,0.222,-0.079,8.44,0.0,0.0,0.0,0.0,0.0,0.0,0.0,0.0,0.0
1576083268572728464,334,0,,0.0,0.0,0.0,0.0,0.0,0.0,0.0,0.0,0.0,0.0,0.0,0.0,0.0,0.011,-0.021,-0.02,0.0,0.0,0.0,0.0,0.0,0.0,0.0,0.0,0.0,0.165,-0.674,9.45,0.0,0.0,0.0,0.0,0.0,0.0,0.0,0.0,0.0
1576083268664868360,335,0,,0.0,0.0,0.0,0.0,0.0,0.0,0.0,0.0,0.0,0.0,0.0,0.0,0.0,0.007,-0.002,-0.05,0.0,0.0,0.0,0.0,0.0,0.0,0.0,0.0,0.0,-0.354,-0.292,13.09,0.0,0.0,0.0,0.0,0.0,0.0,0.0,0.0,0.0
1576083268766805130,336,0,,0.0,0.0,0.0,0.0,0.0,0.0,0.0,0.0,0.0,0.0,0.0,0.0,0.0,-0.007,0.02,-0.04,0.0,0.0,0.0,0.0,0.0,0.0,0.0,0.0,0.0,0.357,-1.046,7.7,0.0,0.0,0.0,0.0,0.0,0.0,0.0,0.0,0.0
1576083268831815016,337,0,,0.0,0.0,0.0,0.0,0.0,0.0,0.0,0.0,0.0,0.0,0.0,0.0,0.0,0.01,-0.004,-0.0,0.0,0.0,0.0,0.0,0.0,0.0,0.0,0.0,0.0,-0.362,-0.436,11.04,0.0,0.0,0.0,0.0,0.0,0.0,0.0,0.0,0.0
1576083268901254814,338,0,,0.0,0.0,0.0,0.0,0.0,0.0,0.0,0.0,0.0,0.0,0.0,0.0,0.0,0.025,0.008,0.08,0.0,0.0,0.0,0.0,0.0,0.0,0.0,0.0,0.0,-0.38,-0.057,9.61,0.0,0.0,0.0,0.0,0.0,0.0,0.0,0.0,0.0
1576083268966149609,339,0,,0.0,0.0,0.0,0.0,0.0,0.0,0.0,0.0,0.0,0.0,0.0,0.0,0.0,-0.044,-0.001,0.11,0.0,0.0,0.0,0.0,0.0,0.0,0.0,0.0,0.0,-0.075,-0.765,2.45,0.0,0.0,0.0,0.0,0.0,0.0,0.0,0.0,0.0
1576083269034580522,340,0,,0.0,0.0,0.0,0.0,0.0,0.0,0.0,0.0,0.0,0.0,0.0,0.0,0.0,0.058,0.172,0.15,0.0,0.0,0.0,0.0,0.0,0.0,0.0,0.0,0.0,-2.0,-1.777,9.78,0.0,0.0,0.0,0.0,0.0,0.0,0.0,0.0,0.0
1576083269103143248,341,0,,0.0,0.0,0.0,0.0,0.0,0.0,0.0,0.0,0.0,0.0,0.0,0.0,0.0,-0.036,-0.164,0.0,0.0,0.0,0.0,0.0,0.0,0.0,0.0,0.0,0.0,1.13,1.251,11.47,0.0,0.0,0.0,0.0,0.0,0.0,0.0,0.0,0.0
1576083269167837499,342,0,,0.0,0.0,0.0,0.0,0.0,0.0,0.0,0.0,0.0,0.0,0.0,0.0,0.0,-0.081,0.005,0.08,0.0,0.0,0.0,0.0,0.0,0.0,0.0,0.0,0.0,-0.205,0.378,12.75,0.0,0.0,0.0,0.0,0.0,0.0,0.0,0.0,0.0
1576083269234999582,343,0,,0.0,0.0,0.0,0.0,0.0,0.0,0.0,0.0,0.0,0.0,0.0,0.0,0.0,0.001,0.001,0.05,0.0,0.0,0.0,0.0,0.0,0.0,0.0,0.0,0.0,-0.591,0.423,3.57,0.0,0.0,0.0,0.0,0.0,0.0,0.0,0.0,0.0
1576083269303019930,344,0,,0.0,0.0,0.0,0.0,0.0,0.0,0.0,0.0,0.0,0.0,0.0,0.0,0.0,-0.154,0.073,0.0,0.0,0.0,0.0,0.0,0.0,0.0,0.0,0.0,0.0,-1.197,-0.769,3.86,0.0,0.0,0.0,0.0,0.0,0.0,0.0,0.0,0.0
1576083269369231962,345,0,,0.0,0.0,0.0,0.0,0.0,0.0,0.0,0.0,0.0,0.0,0.0,0.0,0.0,0.083,-0.005,0.05,0.0,0.0,0.0,0.0,0.0,0.0,0.0,0.0,0.0,0.533,0.322,8.65,0.0,0.0,0.0,0.0,0.0,0.0,0.0,0.0,0.0
1576083269455192454,346,0,,0.0,0.0,0.0,0.0,0.0,0.0,0.0,0.0,0.0,0.0,0.0,0.0,0.0,0.061,-0.02,0.0,0.0,0.0,0.0,0.0,0.0,0.0,0.0,0.0,0.0,-0.131,-1.008,11.64,0.0,0.0,0.0,0.0,0.0,0.0,0.0,0.0,0.0
1576083269505871213,347,0,,0.0,0.0,0.0,0.0,0.0,0.0,0.0,0.0,0.0,0.0,0.0,0.0,0.0,0.003,-0.004,-0.11,0.0,0.0,0.0,0.0,0.0,0.0,0.0,0.0,0.0,-0.553,0.393,8.21,0.0,0.0,0.0,0.0,0.0,0.0,0.0,0.0,0.0
1576083269573234255,348,0,,0.0,0.0,0.0,0.0,0.0,0.0,0.0,0.0,0.0,0.0,0.0,0.0,0.0,-0.006,-0.003,-0.17,0.0,0.0,0.0,0.0,0.0,0.0,0.0,0.0,0.0,-0.863,-1.498,9.98,0.0,0.0,0.0,0.0,0.0,0.0,0.0,0.0,0.0
1576083269706870276,349,0,,0.0,0.0,0.0,0.0,0.0,0.0,0.0,0.0,0.0,0.0,0.0,0.0,0.0,0.014,-0.007,-0.09,0.0,0.0,0.0,0.0,0.0,0.0,0.0,0.0,0.0,-0.397,-0.618,7.24,0.0,0.0,0.0,0.0,0.0,0.0,0.0,0.0,0.0
1576083269860876153,350,0,,0.0,0.0,0.0,0.0,0.0,0.0,0.0,0.0,0.0,0.0,0.0,0.0,0.0,0.019,-0.013,0.11,0.0,0.0,0.0,0.0,0.0,0.0,0.0,0.0,0.0,0.156,-0.053,10.18,0.0,0.0,0.0,0.0,0.0,0.0,0.0,0.0,0.0
1576083269963838718,351,0,,0.0,0.0,0.0,0.0,0.0,0.0,0.0,0.0,0.0,0.0,0.0,0.0,0.0,-0.03,0.004,0.12,0.0,0.0,0.0,0.0,0.0,0.0,0.0,0.0,0.0,0.274,-0.283,8.59,0.0,0.0,0.0,0.0,0.0,0.0,0.0,0.0,0.0
1576083270031267141,352,0,,0.0,0.0,0.0,0.0,0.0,0.0,0.0,0.0,0.0,0.0,0.0,0.0,0.0,-0.013,-0.002,0.07,0.0,0.0,0.0,0.0,0.0,0.0,0.0,0.0,0.0,-0.522,-0.098,12.77,0.0,0.0,0.0,0.0,0.0,0.0,0.0,0.0,0.0
1576083270102224162,353,0,,0.0,0.0,0.0,0.0,0.0,0.0,0.0,0.0,0.0,0.0,0.0,0.0,0.0,-0.042,0.032,0.02,0.0,0.0,0.0,0.0,0.0,0.0,0.0,0.0,0.0,-0.347,-1.376,10.08,0.0,0.0,0.0,0.0,0.0,0.0,0.0,0.0,0.0
1576083270167940853,354,0,,0.0,0.0,0.0,0.0,0.0,0.0,0.0,0.0,0.0,0.0,0.0,0.0,0.0,-0.021,-0.008,-0.02,0.0,0.0,0.0,0.0,0.0,0.0,0.0,0.0,0.0,-0.114,-0.516,13.08,0.0,0.0,0.0,0.0,0.0,0.0,0.0,0.0,0.0
1576083270233597899,355,0,,0.0,0.0,0.0,0.0,0.0,0.0,0.0,0.0,0.0,0.0,0.0,0.0,0.0,-0.021,0.026,-0.05,0.0,0.0,0.0,0.0,0.0,0.0,0.0,0.0,0.0,0.466,-1.093,0.33,0.0,0.0,0.0,0.0,0.0,0.0,0.0,0.0,0.0
1576083270302684346,356,0,,0.0,0.0,0.0,0.0,0.0,0.0,0.0,0.0,0.0,0.0,0.0,0.0,0.0,-0.023,-0.02,-0.11,0.0,0.0,0.0,0.0,0.0,0.0,0.0,0.0,0.0,0.737,0.275,7.02,0.0,0.0,0.0,0.0,0.0,0.0,0.0,0.0,0.0
1576083270368255134,357,0,,0.0,0.0,0.0,0.0,0.0,0.0,0.0,0.0,0.0,0.0,0.0,0.0,0.0,0.081,0.009,-0.15,0.0,0.0,0.0,0.0,0.0,0.0,0.0,0.0,0.0,-0.093,-0.813,10.63,0.0,0.0,0.0,0.0,0.0,0.0,0.0,0.0,0.0
1576083270458644330,358,0,,0.0,0.0,0.0,0.0,0.0,0.0,0.0,0.0,0.0,0.0,0.0,0.0,0.0,-0.0,0.02,-0.03,0.0,0.0,0.0,0.0,0.0,0.0,0.0,0.0,0.0,-0.593,-0.598,9.63,0.0,0.0,0.0,0.0,0.0,0.0,0.0,0.0,0.0
1576083270502981288,359,0,,0.0,0.0,0.0,0.0,0.0,0.0,0.0,0.0,0.0,0.0,0.0,0.0,0.0,-0.014,0.049,-0.1,0.0,0.0,0.0,0.0,0.0,0.0,0.0,0.0,0.0,0.011,-0.094,11.1,0.0,0.0,0.0,0.0,0.0,0.0,0.0,0.0,0.0
1576083270572720026,360,0,,0.0,0.0,0.0,0.0,0.0,0.0,0.0,0.0,0.0,0.0,0.0,0.0,0.0,-0.074,-0.074,-0.17,0.0,0.0,0.0,0.0,0.0,0.0,0.0,0.0,0.0,-0.248,-1.089,10.21,0.0,0.0,0.0,0.0,0.0,0.0,0.0,0.0,0.0
1576083270656274986,361,0,,0.0,0.0,0.0,0.0,0.0,0.0,0.0,0.0,0.0,0.0,0.0,0.0,0.0,0.043,0.026,-0.06,0.0,0.0,0.0,0.0,0.0,0.0,0.0,0.0,0.0,0.199,-0.702,7.08,0.0,0.0,0.0,0.0,0.0,0.0,0.0,0.0,0.0
1576083270706432097,362,0,,0.0,0.0,0.0,0.0,0.0,0.0,0.0,0.0,0.0,0.0,0.0,0.0,0.0,0.013,0.002,0.06,0.0,0.0,0.0,0.0,0.0,0.0,0.0,0.0,0.0,0.24,0.084,6.96,0.0,0.0,0.0,0.0,0.0,0.0,0.0,0.0,0.0
1576083270771510378,363,0,,0.0,0.0,0.0,0.0,0.0,0.0,0.0,0.0,0.0,0.0,0.0,0.0,0.0,-0.005,0.005,0.08,0.0,0.0,0.0,0.0,0.0,0.0,0.0,0.0,0.0,-0.149,-0.313,9.9,0.0,0.0,0.0,0.0,0.0,0.0,0.0,0.0,0.0
1576083270903965800,364,0,,0.0,0.0,0.0,0.0,0.0,0.0,0.0,0.0,0.0,0.0,0.0,0.0,0.0,-0.012,0.012,0.09,0.0,0.0,0.0,0.0,0.0,0.0,0.0,0.0,0.0,-0.173,0.088,7.91,0.0,0.0,0.0,0.0,0.0,0.0,0.0,0.0,0.0
1576083270974811646,365,0,,0.0,0.0,0.0,0.0,0.0,0.0,0.0,0.0,0.0,0.0,0.0,0.0,0.0,0.016,-0.023,0.02,0.0,0.0,0.0,0.0,0.0,0.0,0.0,0.0,0.0,-0.124,-1.091,8.62,0.0,0.0,0.0,0.0,0.0,0.0,0.0,0.0,0.0
1576083271125071181,366,0,,0.0,0.0,0.0,0.0,0.0,0.0,0.0,0.0,0.0,0.0,0.0,0.0,0.0,-0.002,0.025,-0.01,0.0,0.0,0.0,0.0,0.0,0.0,0.0,0.0,0.0,0.335,-0.14,8.41,0.0,0.0,0.0,0.0,0.0,0.0,0.0,0.0,0.0
1576083271125943308,367,0,,0.0,0.0,0.0,0.0,0.0,0.0,0.0,0.0,0.0,0.0,0.0,0.0,0.0,-0.019,0.023,-0.04,0.0,0.0,0.0,0.0,0.0,0.0,0.0,0.0,0.0,-0.077,-0.472,9.46,0.0,0.0,0.0,0.0,0.0,0.0,0.0,0.0,0.0
1576083271232487414,368,0,,0.0,0.0,0.0,0.0,0.0,0.0,0.0,0.0,0.0,0.0,0.0,0.0,0.0,0.006,0.004,-0.03,0.0,0.0,0.0,0.0,0.0,0.0,0.0,0.0,0.0,-0.37,-0.45,11.49,0.0,0.0,0.0,0.0,0.0,0.0,0.0,0.0,0.0
1576083271297377940,369,0,,0.0,0.0,0.0,0.0,0.0,0.0,0.0,0.0,0.0,0.0,0.0,0.0,0.0,0.036,-0.005,0.01,0.0,0.0,0.0,0.0,0.0,0.0,0.0,0.0,0.0,0.055,-0.452,11.18,0.0,0.0,0.0,0.0,0.0,0.0,0.0,0.0,0.0
1576083271367579899,370,0,,0.0,0.0,0.0,0.0,0.0,0.0,0.0,0.0,0.0,0.0,0.0,0.0,0.0,0.035,-0.011,0.05,0.0,0.0,0.0,0.0,0.0,0.0,0.0,0.0,0.0,-0.18,0.001,9.45,0.0,0.0,0.0,0.0,0.0,0.0,0.0,0.0,0.0
1576083271432922371,371,0,,0.0,0.0,0.0,0.0,0.0,0.0,0.0,0.0,0.0,0.0,0.0,0.0,0.0,0.044,-0.008,0.08,0.0,0.0,0.0,0.0,0.0,0.0,0.0,0.0,0.0,-0.002,-0.458,7.53,0.0,0.0,0.0,0.0,0.0,0.0,0.0,0.0,0.0
1576083271501555734,372,0,,0.0,0.0,0.0,0.0,0.0,0.0,0.0,0.0,0.0,0.0,0.0,0.0,0.0,-0.025,0.003,0.06,0.0,0.0,0.0,0.0,0.0,0.0,0.0,0.0,0.0,0.398,-3.023,4.08,0.0,0.0,0.0,0.0,0.0,0.0,0.0,0.0,0.0
1576083271567284128,373,0,,0.0,0.0,0.0,0.0,0.0,0.0,0.0,0.0,0.0,0.0,0.0,0.0,0.0,0.013,-0.05,-0.04,0.0,0.0,0.0,0.0,0.0,0.0,0.0,0.0,0.0,0.818,0.978,13.31,0.0,0.0,0.0,0.0,0.0,0.0,0.0,0.0,0.0
1576083271663317808,374,0,,0.0,0.0,0.0,0.0,0.0,0.0,0.0,0.0,0.0,0.0,0.0,0.0,0.0,-0.028,0.025,0.1,0.0,0.0,0.0,0.0,0.0,0.0,0.0,0.0,0.0,-0.765,-1.91,7.79,0.0,0.0,0.0,0.0,0.0,0.0,0.0,0.0,0.0
1576083271703081073,375,0,,0.0,0.0,0.0,0.0,0.0,0.0,0.0,0.0,0.0,0.0,0.0,0.0,0.0,-0.03,-0.005,0.03,0.0,0.0,0.0,0.0,0.0,0.0,0.0,0.0,0.0,0.528,0.564,10.29,0.0,0.0,0.0,0.0,0.0,0.0,0.0,0.0,0.0
1576083271769306587,376,0,,0.0,0.0,0.0,0.0,0.0,0.0,0.0,0.0,0.0,0.0,0.0,0.0,0.0,-0.032,0.102,0.04,0.0,0.0,0.0,0.0,0.0,0.0,0.0,0.0,0.0,-1.902,-3.272,11.03,0.0,0.0,0.0,0.0,0.0,0.0,0.0,0.0,0.0
1576083271854503338,377,0,,0.0,0.0,0.0,0.0,0.0,0.0,0.0,0.0,0.0,0.0,0.0,0.0,0.0,0.01,-0.098,-0.09,0.0,0.0,0.0,0.0,0.0,0.0,0.0,0.0,0.0,0.229,-0.254,12.16,0.0,0.0,0.0,0.0,0.0,0.0,0.0,0.0,0.0
1576083271906097195,378,0,,0.0,0.0,0.0,0.0,0.0,0.0,0.0,0.0,0.0,0.0,0.0,0.0,0.0,0.051,-0.016,0.07,0.0,0.0,0.0,0.0,0.0,0.0,0.0,0.0,0.0,-0.16,-0.589,9.69,0.0,0.0,0.0,0.0,0.0,0.0,0.0,0.0,0.0
1576083271971504924,379,0,,0.0,0.0,0.0,0.0,0.0,0.0,0.0,0.0,0.0,0.0,0.0,0.0,0.0,0.022,0.011,0.01,0.0,0.0,0.0,0.0,0.0,0.0,0.0,0.0,0.0,-0.137,0.326,9.81,0.0,0.0,0.0,0.0,0.0,0.0,0.0,0.0,0.0
1576083272059738959,380,0,,0.0,0.0,0.0,0.0,0.0,0.0,0.0,0.0,0.0,0.0,0.0,0.0,0.0,0.032,-0.006,0.01,0.0,0.0,0.0,0.0,0.0,0.0,0.0,0.0,0.0,-0.156,-0.303,8.03,0.0,0.0,0.0,0.0,0.0,0.0,0.0,0.0,0.0
1576083272107460852,381,0,,0.0,0.0,0.0,0.0,0.0,0.0,0.0,0.0,0.0,0.0,0.0,0.0,0.0,-0.025,0.021,0.03,0.0,0.0,0.0,0.0,0.0,0.0,0.0,0.0,0.0,0.418,-0.089,8.73,0.0,0.0,0.0,0.0,0.0,0.0,0.0,0.0,0.0
1576083272253685005,382,0,,0.0,0.0,0.0,0.0,0.0,0.0,0.0,0.0,0.0,0.0,0.0,0.0,0.0,-0.017,0.002,0.14,0.0,0.0,0.0,0.0,0.0,0.0,0.0,0.0,0.0,0.304,0.596,12.21,0.0,0.0,0.0,0.0,0.0,0.0,0.0,0.0,0.0
1576083272368219676,383,0,,0.0,0.0,0.0,0.0,0.0,0.0,0.0,0.0,0.0,0.0,0.0,0.0,0.0,-0.067,0.014,0.15,0.0,0.0,0.0,0.0,0.0,0.0,0.0,0.0,0.0,-0.112,0.219,10.95,0.0,0.0,0.0,0.0,0.0,0.0,0.0,0.0,0.0
1576083272432509233,384,0,,0.0,0.0,0.0,0.0,0.0,0.0,0.0,0.0,0.0,0.0,0.0,0.0,0.0,-0.05,0.003,0.15,0.0,0.0,0.0,0.0,0.0,0.0,0.0,0.0,0.0,-0.265,-0.491,7.31,0.0,0.0,0.0,0.0,0.0,0.0,0.0,0.0,0.0
1576083272499341349,385,0,,0.0,0.0,0.0,0.0,0.0,0.0,0.0,0.0,0.0,0.0,0.0,0.0,0.0,-0.045,0.025,0.15,0.0,0.0,0.0,0.0,0.0,0.0,0.0,0.0,0.0,-1.032,-0.263,11.97,0.0,0.0,0.0,0.0,0.0,0.0,0.0,0.0,0.0
1576083272567728073,386,0,,0.0,0.0,0.0,0.0,0.0,0.0,0.0,0.0,0.0,0.0,0.0,0.0,0.0,-0.04,0.007,0.12,0.0,0.0,0.0,0.0,0.0,0.0,0.0,0.0,0.0,-0.082,-1.447,9.44,0.0,0.0,0.0,0.0,0.0,0.0,0.0,0.0,0.0
1576083272660007280,387,0,,0.0,0.0,0.0,0.0,0.0,0.0,0.0,0.0,0.0,0.0,0.0,0.0,0.0,-0.012,-0.0,0.09,0.0,0.0,0.0,0.0,0.0,0.0,0.0,0.0,0.0,-0.39,-1.456,11.21,0.0,0.0,0.0,0.0,0.0,0.0,0.0,0.0,0.0
1576083272700800109,388,0,,0.0,0.0,0.0,0.0,0.0,0.0,0.0,0.0,0.0,0.0,0.0,0.0,0.0,0.015,0.006,0.15,0.0,0.0,0.0,0.0,0.0,0.0,0.0,0.0,0.0,-0.384,-0.353,10.45,0.0,0.0,0.0,0.0,0.0,0.0,0.0,0.0,0.0
1576083272767587211,389,0,,0.0,0.0,0.0,0.0,0.0,0.0,0.0,0.0,0.0,0.0,0.0,0.0,0.0,-0.013,0.017,0.19,0.0,0.0,0.0,0.0,0.0,0.0,0.0,0.0,0.0,-0.802,-0.813,10.97,0.0,0.0,0.0,0.0,0.0,0.0,0.0,0.0,0.0
1576083272854356761,390,0,,0.0,0.0,0.0,0.0,0.0,0.0,0.0,0.0,0.0,0.0,0.0,0.0,0.0,-0.025,-0.011,0.17,0.0,0.0,0.0,0.0,0.0,0.0,0.0,0.0,0.0,0.021,-1.142,8.97,0.0,0.0,0.0,0.0,0.0,0.0,0.0,0.0,0.0
1576083272901944157,391,0,,0.0,0.0,0.0,0.0,0.0,0.0,0.0,0.0,0.0,0.0,0.0,0.0,0.0,0.021,-0.018,0.04,0.0,0.0,0.0,0.0,0.0,0.0,0.0,0.0,0.0,-0.209,0.797,10.93,0.0,0.0,0.0,0.0,0.0,0.0,0.0,0.0,0.0
1576083272971361029,392,0,,0.0,0.0,0.0,0.0,0.0,0.0,0.0,0.0,0.0,0.0,0.0,0.0,0.0,0.025,0.015,0.24,0.0,0.0,0.0,0.0,0.0,0.0,0.0,0.0,0.0,0.584,0.675,5.48,0.0,0.0,0.0,0.0,0.0,0.0,0.0,0.0,0.0
1576083273054496982,393,0,,0.0,0.0,0.0,0.0,0.0,0.0,0.0,0.0,0.0,0.0,0.0,0.0,0.0,0.103,0.025,0.39,0.0,0.0,0.0,0.0,0.0,0.0,0.0,0.0,0.0,-1.397,-0.545,10.6,0.0,0.0,0.0,0.0,0.0,0.0,0.0,0.0,0.0
1576083273102527554,394,0,,0.0,0.0,0.0,0.0,0.0,0.0,0.0,0.0,0.0,0.0,0.0,0.0,0.0,0.052,-0.163,0.3,0.0,0.0,0.0,0.0,0.0,0.0,0.0,0.0,0.0,-0.541,-0.393,2.83,0.0,0.0,0.0,0.0,0.0,0.0,0.0,0.0,0.0
1576083273173416734,395,0,,0.0,0.0,0.0,0.0,0.0,0.0,0.0,0.0,0.0,0.0,0.0,0.0,0.0,-0.047,0.134,0.27,0.0,0.0,0.0,0.0,0.0,0.0,0.0,0.0,0.0,-1.109,-0.529,9.45,0.0,0.0,0.0,0.0,0.0,0.0,0.0,0.0,0.0
1576083273251252890,396,0,,0.0,0.0,0.0,0.0,0.0,0.0,0.0,0.0,0.0,0.0,0.0,0.0,0.0,0.027,-0.01,0.58,0.0,0.0,0.0,0.0,0.0,0.0,0.0,0.0,0.0,-1.628,-0.805,10.26,0.0,0.0,0.0,0.0,0.0,0.0,0.0,0.0,0.0
1576083273305943135,397,0,,0.0,0.0,0.0,0.0,0.0,0.0,0.0,0.0,0.0,0.0,0.0,0.0,0.0,0.042,-0.007,0.71,0.0,0.0,0.0,0.0,0.0,0.0,0.0,0.0,0.0,-1.378,-1.125,10.2,0.0,0.0,0.0,0.0,0.0,0.0,0.0,0.0,0.0
1576083273451574265,398,0,,0.0,0.0,0.0,0.0,0.0,0.0,0.0,0.0,0.0,0.0,0.0,0.0,0.0,-0.014,-0.004,0.94,0.0,0.0,0.0,0.0,0.0,0.0,0.0,0.0,0.0,-1.762,-2.24,8.48,0.0,0.0,0.0,0.0,0.0,0.0,0.0,0.0,0.0
1576083273572447162,399,0,,0.0,0.0,0.0,0.0,0.0,0.0,0.0,0.0,0.0,0.0,0.0,0.0,0.0,-0.033,0.01,0.99,0.0,0.0,0.0,0.0,0.0,0.0,0.0,0.0,0.0,-1.579,-1.124,9.73,0.0,0.0,0.0,0.0,0.0,0.0,0.0,0.0,0.0
1576083273699322062,400,0,,0.0,0.0,0.0,0.0,0.0,0.0,0.0,0.0,0.0,0.0,0.0,0.0,0.0,-0.03,0.011,1.08,0.0,0.0,0.0,0.0,0.0,0.0,0.0,0.0,0.0,-0.69,-1.297,8.96,0.0,0.0,0.0,0.0,0.0,0.0,0.0,0.0,0.0
1576083273765582607,401,0,,0.0,0.0,0.0,0.0,0.0,0.0,0.0,0.0,0.0,0.0,0.0,0.0,0.0,-0.05,0.018,1.18,0.0,0.0,0.0,0.0,0.0,0.0,0.0,0.0,0.0,-0.349,-0.88,9.39,0.0,0.0,0.0,0.0,0.0,0.0,0.0,0.0,0.0
1576083273852463414,402,0,,0.0,0.0,0.0,0.0,0.0,0.0,0.0,0.0,0.0,0.0,0.0,0.0,0.0,-0.033,0.003,1.26,0.0,0.0,0.0,0.0,0.0,0.0,0.0,0.0,0.0,-1.161,-0.584,9.2,0.0,0.0,0.0,0.0,0.0,0.0,0.0,0.0,0.0
1576083273898079862,403,0,,0.0,0.0,0.0,0.0,0.0,0.0,0.0,0.0,0.0,0.0,0.0,0.0,0.0,-0.021,0.008,1.3,0.0,0.0,0.0,0.0,0.0,0.0,0.0,0.0,0.0,-0.71,0.33,10.01,0.0,0.0,0.0,0.0,0.0,0.0,0.0,0.0,0.0
1576083273964149302,404,0,,0.0,0.0,0.0,0.0,0.0,0.0,0.0,0.0,0.0,0.0,0.0,0.0,0.0,-0.03,-0.004,1.18,0.0,0.0,0.0,0.0,0.0,0.0,0.0,0.0,0.0,-0.989,0.342,9.17,0.0,0.0,0.0,0.0,0.0,0.0,0.0,0.0,0.0
1576083274057039560,405,0,,0.0,0.0,0.0,0.0,0.0,0.0,0.0,0.0,0.0,0.0,0.0,0.0,0.0,-0.028,-0.011,1.03,0.0,0.0,0.0,0.0,0.0,0.0,0.0,0.0,0.0,-1.346,0.609,10.33,0.0,0.0,0.0,0.0,0.0,0.0,0.0,0.0,0.0
1576083274103257942,406,0,,0.0,0.0,0.0,0.0,0.0,0.0,0.0,0.0,0.0,0.0,0.0,0.0,0.0,-0.031,-0.003,0.93,0.0,0.0,0.0,0.0,0.0,0.0,0.0,0.0,0.0,-1.081,0.759,8.98,0.0,0.0,0.0,0.0,0.0,0.0,0.0,0.0,0.0
1576083274169561452,407,0,,0.0,0.0,0.0,0.0,0.0,0.0,0.0,0.0,0.0,0.0,0.0,0.0,0.0,-0.028,-0.004,0.87,0.0,0.0,0.0,0.0,0.0,0.0,0.0,0.0,0.0,-1.605,0.48,9.76,0.0,0.0,0.0,0.0,0.0,0.0,0.0,0.0,0.0
1576083274251776550,408,0,,0.0,0.0,0.0,0.0,0.0,0.0,0.0,0.0,0.0,0.0,0.0,0.0,0.0,-0.038,-0.002,0.81,0.0,0.0,0.0,0.0,0.0,0.0,0.0,0.0,0.0,-1.612,1.13,10.27,0.0,0.0,0.0,0.0,0.0,0.0,0.0,0.0,0.0
1576083274306665888,409,0,,0.0,0.0,0.0,0.0,0.0,0.0,0.0,0.0,0.0,0.0,0.0,0.0,0.0,-0.057,-0.026,0.77,0.0,0.0,0.0,0.0,0.0,0.0,0.0,0.0,0.0,-1.459,0.417,8.81,0.0,0.0,0.0,0.0,0.0,0.0,0.0,0.0,0.0
1576083274373642043,410,0,,0.0,0.0,0.0,0.0,0.0,0.0,0.0,0.0,0.0,0.0,0.0,0.0,0.0,0.009,-0.029,0.7,0.0,0.0,0.0,0.0,0.0,0.0,0.0,0.0,0.0,-0.768,1.659,9.56,0.0,0.0,0.0,0.0,0.0,0.0,0.0,0.0,0.0
1576083274452802292,411,0,,0.0,0.0,0.0,0.0,0.0,0.0,0.0,0.0,0.0,0.0,0.0,0.0,0.0,-0.032,-0.026,0.46,0.0,0.0,0.0,0.0,0.0,0.0,0.0,0.0,0.0,-0.145,0.581,9.1,0.0,0.0,0.0,0.0,0.0,0.0,0.0,0.0,0.0
1576083274507018288,412,0,,0.0,0.0,0.0,0.0,0.0,0.0,0.0,0.0,0.0,0.0,0.0,0.0,0.0,-0.018,0.015,0.42,0.0,0.0,0.0,0.0,0.0,0.0,0.0,0.0,0.0,-0.159,1.02,9.97,0.0,0.0,0.0,0.0,0.0,0.0,0.0,0.0,0.0
1576083274572838690,413,0,,0.0,0.0,0.0,0.0,0.0,0.0,0.0,0.0,0.0,0.0,0.0,0.0,0.0,-0.027,0.039,0.4,0.0,0.0,0.0,0.0,0.0,0.0,0.0,0.0,0.0,-0.907,-0.076,4.42,0.0,0.0,0.0,0.0,0.0,0.0,0.0,0.0,0.0
1576083274652678421,414,0,,0.0,0.0,0.0,0.0,0.0,0.0,0.0,0.0,0.0,0.0,0.0,0.0,0.0,0.033,-0.012,0.48,0.0,0.0,0.0,0.0,0.0,0.0,0.0,0.0,0.0,-0.954,1.381,11.5,0.0,0.0,0.0,0.0,0.0,0.0,0.0,0.0,0.0
1576083274775375721,415,0,,0.0,0.0,0.0,0.0,0.0,0.0,0.0,0.0,0.0,0.0,0.0,0.0,0.0,-0.015,0.021,0.44,0.0,0.0,0.0,0.0,0.0,0.0,0.0,0.0,0.0,-0.787,1.576,8.51,0.0,0.0,0.0,0.0,0.0,0.0,0.0,0.0,0.0
1576083274919394123,416,0,,0.0,0.0,0.0,0.0,0.0,0.0,0.0,0.0,0.0,0.0,0.0,0.0,0.0,0.018,-0.032,0.38,0.0,0.0,0.0,0.0,0.0,0.0,0.0,0.0,0.0,0.092,2.392,8.23,0.0,0.0,0.0,0.0,0.0,0.0,0.0,0.0,0.0
1576083274964147363,417,0,,0.0,0.0,0.0,0.0,0.0,0.0,0.0,0.0,0.0,0.0,0.0,0.0,0.0,0.04,-0.002,0.42,0.0,0.0,0.0,0.0,0.0,0.0,0.0,0.0,0.0,-0.973,0.286,10.0,0.0,0.0,0.0,0.0,0.0,0.0,0.0,0.0,0.0
1576083275052272591,418,0,,0.0,0.0,0.0,0.0,0.0,0.0,0.0,0.0,0.0,0.0,0.0,0.0,0.0,0.011,-0.019,0.34,0.0,0.0,0.0,0.0,0.0,0.0,0.0,0.0,0.0,-0.534,1.641,6.76,0.0,0.0,0.0,0.0,0.0,0.0,0.0,0.0,0.0
1576083275098870057,419,0,,0.0,0.0,0.0,0.0,0.0,0.0,0.0,0.0,0.0,0.0,0.0,0.0,0.0,0.003,0.001,0.31,0.0,0.0,0.0,0.0,0.0,0.0,0.0,0.0,0.0,-1.384,0.166,6.69,0.0,0.0,0.0,0.0,0.0,0.0,0.0,0.0,0.0
1576083275165122962,420,0,,0.0,0.0,0.0,0.0,0.0,0.0,0.0,0.0,0.0,0.0,0.0,0.0,0.0,-0.072,0.003,0.22,0.0,0.0,0.0,0.0,0.0,0.0,0.0,0.0,0.0,-0.835,1.082,10.16,0.0,0.0,0.0,0.0,0.0,0.0,0.0,0.0,0.0
1576083275255853402,421,0,,0.0,0.0,0.0,0.0,0.0,0.0,0.0,0.0,0.0,0.0,0.0,0.0,0.0,-0.044,0.011,0.19,0.0,0.0,0.0,0.0,0.0,0.0,0.0,0.0,0.0,-0.28,0.501,7.97,0.0,0.0,0.0,0.0,0.0,0.0,0.0,0.0,0.0
1576083275299721725,422,0,,0.0,0.0,0.0,0.0,0.0,0.0,0.0,0.0,0.0,0.0,0.0,0.0,0.0,-0.003,0.011,0.14,0.0,0.0,0.0,0.0,0.0,0.0,0.0,0.0,0.0,-0.72,1.113,8.51,0.0,0.0,0.0,0.0,0.0,0.0,0.0,0.0,0.0
1576083275369772290,423,0,,0.0,0.0,0.0,0.0,0.0,0.0,0.0,0.0,0.0,0.0,0.0,0.0,0.0,0.001,-0.003,0.07,0.0,0.0,0.0,0.0,0.0,0.0,0.0,0.0,0.0,-0.709,0.839,11.34,0.0,0.0,0.0,0.0,0.0,0.0,0.0,0.0,0.0
1576083275449459023,424,0,,0.0,0.0,0.0,0.0,0.0,0.0,0.0,0.0,0.0,0.0,0.0,0.0,0.0,0.015,0.009,0.04,0.0,0.0,0.0,0.0,0.0,0.0,0.0,0.0,0.0,-0.664,0.436,7.3,0.0,0.0,0.0,0.0,0.0,0.0,0.0,0.0,0.0
1576083275525127286,425,0,,0.0,0.0,0.0,0.0,0.0,0.0,0.0,0.0,0.0,0.0,0.0,0.0,0.0,0.021,-0.022,0.02,0.0,0.0,0.0,0.0,0.0,0.0,0.0,0.0,0.0,-0.165,0.31,5.98,0.0,0.0,0.0,0.0,0.0,0.0,0.0,0.0,0.0
1576083275569098209,426,0,,0.0,0.0,0.0,0.0,0.0,0.0,0.0,0.0,0.0,0.0,0.0,0.0,0.0,0.01,-0.019,-0.05,0.0,0.0,0.0,0.0,0.0,0.0,0.0,0.0,0.0,-0.715,0.042,8.75,0.0,0.0,0.0,0.0,0.0,0.0,0.0,0.0,0.0
1576083275652836349,427,0,,0.0,0.0,0.0,0.0,0.0,0.0,0.0,0.0,0.0,0.0,0.0,0.0,0.0,0.013,-0.019,-0.07,0.0,0.0,0.0,0.0,0.0,0.0,0.0,0.0,0.0,0.033,0.395,7.74,0.0,0.0,0.0,0.0,0.0,0.0,0.0,0.0,0.0
1576083275709826796,428,0,,0.0,0.0,0.0,0.0,0.0,0.0,0.0,0.0,0.0,0.0,0.0,0.0,0.0,-0.014,-0.001,-0.05,0.0,0.0,0.0,0.0,0.0,0.0,0.0,0.0,0.0,-0.617,-0.148,8.06,0.0,0.0,0.0,0.0,0.0,0.0,0.0,0.0,0.0
1576083275773903580,429,0,,0.0,0.0,0.0,0.0,0.0,0.0,0.0,0.0,0.0,0.0,0.0,0.0,0.0,-0.014,0.01,-0.04,0.0,0.0,0.0,0.0,0.0,0.0,0.0,0.0,0.0,-0.015,0.371,8.04,0.0,0.0,0.0,0.0,0.0,0.0,0.0,0.0,0.0
1576083275853949840,430,0,,0.0,0.0,0.0,0.0,0.0,0.0,0.0,0.0,0.0,0.0,0.0,0.0,0.0,0.014,0.005,-0.11,0.0,0.0,0.0,0.0,0.0,0.0,0.0,0.0,0.0,-0.504,0.397,7.15,0.0,0.0,0.0,0.0,0.0,0.0,0.0,0.0,0.0
1576083275909109859,431,0,,0.0,0.0,0.0,0.0,0.0,0.0,0.0,0.0,0.0,0.0,0.0,0.0,0.0,-0.046,-0.002,-0.13,0.0,0.0,0.0,0.0,0.0,0.0,0.0,0.0,0.0,-0.829,0.616,6.39,0.0,0.0,0.0,0.0,0.0,0.0,0.0,0.0,0.0
1576083276050647035,432,0,,0.0,0.0,0.0,0.0,0.0,0.0,0.0,0.0,0.0,0.0,0.0,0.0,0.0,-0.015,-0.038,-0.05,0.0,0.0,0.0,0.0,0.0,0.0,0.0,0.0,0.0,-0.673,0.204,5.51,0.0,0.0,0.0,0.0,0.0,0.0,0.0,0.0,0.0
1576083276164425213,433,0,,0.0,0.0,0.0,0.0,0.0,0.0,0.0,0.0,0.0,0.0,0.0,0.0,0.0,0.011,-0.018,0.01,0.0,0.0,0.0,0.0,0.0,0.0,0.0,0.0,0.0,-1.346,-0.006,12.84,0.0,0.0,0.0,0.0,0.0,0.0,0.0,0.0,0.0
1576083276249911078,434,0,,0.0,0.0,0.0,0.0,0.0,0.0,0.0,0.0,0.0,0.0,0.0,0.0,0.0,0.016,-0.017,0.02,0.0,0.0,0.0,0.0,0.0,0.0,0.0,0.0,0.0,0.072,-0.393,7.6,0.0,0.0,0.0,0.0,0.0,0.0,0.0,0.0,0.0
1576083276299807877,435,0,,0.0,0.0,0.0,0.0,0.0,0.0,0.0,0.0,0.0,0.0,0.0,0.0,0.0,0.043,-0.029,0.05,0.0,0.0,0.0,0.0,0.0,0.0,0.0,0.0,0.0,-0.533,1.068,7.97,0.0,0.0,0.0,0.0,0.0,0.0,0.0,0.0,0.0
1576083276366447862,436,0,,0.0,0.0,0.0,0.0,0.0,0.0,0.0,0.0,0.0,0.0,0.0,0.0,0.0,0.017,-0.003,0.06,0.0,0.0,0.0,0.0,0.0,0.0,0.0,0.0,0.0,-0.677,-0.632,9.7,0.0,0.0,0.0,0.0,0.0,0.0,0.0,0.0,0.0
1576083276451346575,437,0,,0.0,0.0,0.0,0.0,0.0,0.0,0.0,0.0,0.0,0.0,0.0,0.0,0.0,-0.004,0.0,0.05,0.0,0.0,0.0,0.0,0.0,0.0,0.0,0.0,0.0,-0.584,0.228,8.56,0.0,0.0,0.0,0.0,0.0,0.0,0.0,0.0,0.0
1576083276500271951,438,0,,0.0,0.0,0.0,0.0,0.0,0.0,0.0,0.0,0.0,0.0,0.0,0.0,0.0,0.022,-0.002,0.11,0.0,0.0,0.0,0.0,0.0,0.0,0.0,0.0,0.0,-0.311,-0.465,7.7,0.0,0.0,0.0,0.0,0.0,0.0,0.0,0.0,0.0
1576083276567637373,439,0,,0.0,0.0,0.0,0.0,0.0,0.0,0.0,0.0,0.0,0.0,0.0,0.0,0.0,-0.009,0.017,0.14,0.0,0.0,0.0,0.0,0.0,0.0,0.0,0.0,0.0,-0.671,-0.382,9.5,0.0,0.0,0.0,0.0,0.0,0.0,0.0,0.0,0.0
1576083276651465946,440,0,,0.0,0.0,0.0,0.0,0.0,0.0,0.0,0.0,0.0,0.0,0.0,0.0,0.0,-0.013,-0.053,0.17,0.0,0.0,0.0,0.0,0.0,0.0,0.0,0.0,0.0,1.625,-1.142,8.16,0.0,0.0,0.0,0.0,0.0,0.0,0.0,0.0,0.0
1576083276703559034,441,0,,0.0,0.0,0.0,0.0,0.0,0.0,0.0,0.0,0.0,0.0,0.0,0.0,0.0,0.068,0.017,0.03,0.0,0.0,0.0,0.0,0.0,0.0,0.0,0.0,0.0,-0.77,0.028,5.95,0.0,0.0,0.0,0.0,0.0,0.0,0.0,0.0,0.0
1576083276771453328,442,0,,0.0,0.0,0.0,0.0,0.0,0.0,0.0,0.0,0.0,0.0,0.0,0.0,0.0,-0.104,0.02,-0.12,0.0,0.0,0.0,0.0,0.0,0.0,0.0,0.0,0.0,-0.569,-0.781,11.0,0.0,0.0,0.0,0.0,0.0,0.0,0.0,0.0,0.0
1576083276851022549,443,0,,0.0,0.0,0.0,0.0,0.0,0.0,0.0,0.0,0.0,0.0,0.0,0.0,0.0,-0.024,0.017,0.04,0.0,0.0,0.0,0.0,0.0,0.0,0.0,0.0,0.0,-0.804,-0.25,9.88,0.0,0.0,0.0,0.0,0.0,0.0,0.0,0.0,0.0
1576083276903701901,444,0,,0.0,0.0,0.0,0.0,0.0,0.0,0.0,0.0,0.0,0.0,0.0,0.0,0.0,-0.039,-0.001,0.06,0.0,0.0,0.0,0.0,0.0,0.0,0.0,0.0,0.0,-0.42,-1.754,9.26,0.0,0.0,0.0,0.0,0.0,0.0,0.0,0.0,0.0
1576083276972151201,445,0,,0.0,0.0,0.0,0.0,0.0,0.0,0.0,0.0,0.0,0.0,0.0,0.0,0.0,-0.054,-0.055,0.09,0.0,0.0,0.0,0.0,0.0,0.0,0.0,0.0,0.0,-1.062,-1.442,9.84,0.0,0.0,0.0,0.0,0.0,0.0,0.0,0.0,0.0
1576083277167755483,446,0,,0.0,0.0,0.0,0.0,0.0,0.0,0.0,0.0,0.0,0.0,0.0,0.0,0.0,-0.027,-0.011,0.17,0.0,0.0,0.0,0.0,0.0,0.0,0.0,0.0,0.0,-1.032,-1.23,10.15,0.0,0.0,0.0,0.0,0.0,0.0,0.0,0.0,0.0
1576083277168722791,447,0,,0.0,0.0,0.0,0.0,0.0,0.0,0.0,0.0,0.0,0.0,0.0,0.0,0.0,0.013,0.001,0.26,0.0,0.0,0.0,0.0,0.0,0.0,0.0,0.0,0.0,-0.507,-0.51,9.85,0.0,0.0,0.0,0.0,0.0,0.0,0.0,0.0,0.0
1576083277250267878,448,0,,0.0,0.0,0.0,0.0,0.0,0.0,0.0,0.0,0.0,0.0,0.0,0.0,0.0,-0.023,-0.012,0.32,0.0,0.0,0.0,0.0,0.0,0.0,0.0,0.0,0.0,-0.338,-0.671,6.79,0.0,0.0,0.0,0.0,0.0,0.0,0.0,0.0,0.0
1576083277297950925,449,0,,0.0,0.0,0.0,0.0,0.0,0.0,0.0,0.0,0.0,0.0,0.0,0.0,0.0,-0.01,-0.025,0.4,0.0,0.0,0.0,0.0,0.0,0.0,0.0,0.0,0.0,-0.886,-0.186,11.02,0.0,0.0,0.0,0.0,0.0,0.0,0.0,0.0,0.0
1576083277364773304,450,0,,0.0,0.0,0.0,0.0,0.0,0.0,0.0,0.0,0.0,0.0,0.0,0.0,0.0,0.056,-0.021,0.46,0.0,0.0,0.0,0.0,0.0,0.0,0.0,0.0,0.0,0.594,1.021,10.98,0.0,0.0,0.0,0.0,0.0,0.0,0.0,0.0,0.0
1576083277576165949,451,0,,0.0,0.0,0.0,0.0,0.0,0.0,0.0,0.0,0.0,0.0,0.0,0.0,0.0,0.022,-0.039,0.49,0.0,0.0,0.0,0.0,0.0,0.0,0.0,0.0,0.0,-0.791,-0.715,6.58,0.0,0.0,0.0,0.0,0.0,0.0,0.0,0.0,0.0
1576083277577184658,452,0,,0.0,0.0,0.0,0.0,0.0,0.0,0.0,0.0,0.0,0.0,0.0,0.0,0.0,-0.049,0.007,0.66,0.0,0.0,0.0,0.0,0.0,0.0,0.0,0.0,0.0,-0.133,0.614,8.94,0.0,0.0,0.0,0.0,0.0,0.0,0.0,0.0,0.0
1576083277577231903,453,0,,0.0,0.0,0.0,0.0,0.0,0.0,0.0,0.0,0.0,0.0,0.0,0.0,0.0,-0.014,-0.028,0.73,0.0,0.0,0.0,0.0,0.0,0.0,0.0,0.0,0.0,-0.934,0.549,8.61,0.0,0.0,0.0,0.0,0.0,0.0,0.0,0.0,0.0
1576083277650543414,454,0,,0.0,0.0,0.0,0.0,0.0,0.0,0.0,0.0,0.0,0.0,0.0,0.0,0.0,-0.047,-0.009,0.77,0.0,0.0,0.0,0.0,0.0,0.0,0.0,0.0,0.0,-0.619,0.456,9.27,0.0,0.0,0.0,0.0,0.0,0.0,0.0,0.0,0.0
1576083277698685298,455,0,,0.0,0.0,0.0,0.0,0.0,0.0,0.0,0.0,0.0,0.0,0.0,0.0,0.0,-0.008,-0.011,0.78,0.0,0.0,0.0,0.0,0.0,0.0,0.0,0.0,0.0,-0.847,0.785,10.5,0.0,0.0,0.0,0.0,0.0,0.0,0.0,0.0,0.0
1576083277768183641,456,0,,0.0,0.0,0.0,0.0,0.0,0.0,0.0,0.0,0.0,0.0,0.0,0.0,0.0,-0.003,-0.023,0.79,0.0,0.0,0.0,0.0,0.0,0.0,0.0,0.0,0.0,-1.005,0.582,7.7,0.0,0.0,0.0,0.0,0.0,0.0,0.0,0.0,0.0
1576083278088174791,457,0,,0.0,0.0,0.0,0.0,0.0,0.0,0.0,0.0,0.0,0.0,0.0,0.0,0.0,-0.005,-0.021,0.78,0.0,0.0,0.0,0.0,0.0,0.0,0.0,0.0,0.0,-0.367,0.61,11.33,0.0,0.0,0.0,0.0,0.0,0.0,0.0,0.0,0.0
1576083278088856957,458,0,,0.0,0.0,0.0,0.0,0.0,0.0,0.0,0.0,0.0,0.0,0.0,0.0,0.0,0.003,-0.003,0.76,0.0,0.0,0.0,0.0,0.0,0.0,0.0,0.0,0.0,-0.897,0.206,8.45,0.0,0.0,0.0,0.0,0.0,0.0,0.0,0.0,0.0
1576083278089288395,459,0,,0.0,0.0,0.0,0.0,0.0,0.0,0.0,0.0,0.0,0.0,0.0,0.0,0.0,-0.012,0.002,0.72,0.0,0.0,0.0,0.0,0.0,0.0,0.0,0.0,0.0,-1.186,0.136,11.25,0.0,0.0,0.0,0.0,0.0,0.0,0.0,0.0,0.0
1576083278089911799,460,0,,0.0,0.0,0.0,0.0,0.0,0.0,0.0,0.0,0.0,0.0,0.0,0.0,0.0,0.032,-0.012,0.67,0.0,0.0,0.0,0.0,0.0,0.0,0.0,0.0,0.0,-0.55,0.733,10.49,0.0,0.0,0.0,0.0,0.0,0.0,0.0,0.0,0.0
1576083278103921595,461,0,,0.0,0.0,0.0,0.0,0.0,0.0,0.0,0.0,0.0,0.0,0.0,0.0,0.0,0.011,-0.012,0.63,0.0,0.0,0.0,0.0,0.0,0.0,0.0,0.0,0.0,-1.226,0.136,8.91,0.0,0.0,0.0,0.0,0.0,0.0,0.0,0.0,0.0
1576083278171183849,462,0,,0.0,0.0,0.0,0.0,0.0,0.0,0.0,0.0,0.0,0.0,0.0,0.0,0.0,-0.003,-0.006,0.58,0.0,0.0,0.0,0.0,0.0,0.0,0.0,0.0,0.0,-0.662,1.352,10.79,0.0,0.0,0.0,0.0,0.0,0.0,0.0,0.0,0.0
1576083278307072990,463,0,,0.0,0.0,0.0,0.0,0.0,0.0,0.0,0.0,0.0,0.0,0.0,0.0,0.0,-0.006,-0.03,0.56,0.0,0.0,0.0,0.0,0.0,0.0,0.0,0.0,0.0,-0.45,1.896,10.54,0.0,0.0,0.0,0.0,0.0,0.0,0.0,0.0,0.0
1576083278377079837,464,0,,0.0,0.0,0.0,0.0,0.0,0.0,0.0,0.0,0.0,0.0,0.0,0.0,0.0,0.035,-0.001,0.57,0.0,0.0,0.0,0.0,0.0,0.0,0.0,0.0,0.0,-1.006,0.173,7.1,0.0,0.0,0.0,0.0,0.0,0.0,0.0,0.0,0.0
1576083278506279090,465,0,,0.0,0.0,0.0,0.0,0.0,0.0,0.0,0.0,0.0,0.0,0.0,0.0,0.0,0.001,0.011,0.55,0.0,0.0,0.0,0.0,0.0,0.0,0.0,0.0,0.0,-1.131,0.621,9.28,0.0,0.0,0.0,0.0,0.0,0.0,0.0,0.0,0.0
1576083278649985604,466,0,,0.0,0.0,0.0,0.0,0.0,0.0,0.0,0.0,0.0,0.0,0.0,0.0,0.0,0.034,0.001,0.51,0.0,0.0,0.0,0.0,0.0,0.0,0.0,0.0,0.0,-0.858,0.875,9.42,0.0,0.0,0.0,0.0,0.0,0.0,0.0,0.0,0.0
1576083278720545283,467,0,,0.0,0.0,0.0,0.0,0.0,0.0,0.0,0.0,0.0,0.0,0.0,0.0,0.0,-0.023,0.011,0.39,0.0,0.0,0.0,0.0,0.0,0.0,0.0,0.0,0.0,-0.686,1.338,8.83,0.0,0.0,0.0,0.0,0.0,0.0,0.0,0.0,0.0
1576083278764328792,468,0,,0.0,0.0,0.0,0.0,0.0,0.0,0.0,0.0,0.0,0.0,0.0,0.0,0.0,-0.022,-0.002,0.3,0.0,0.0,0.0,0.0,0.0,0.0,0.0,0.0,0.0,-0.933,0.721,12.11,0.0,0.0,0.0,0.0,0.0,0.0,0.0,0.0,0.0
1576083278849884304,469,0,,0.0,0.0,0.0,0.0,0.0,0.0,0.0,0.0,0.0,0.0,0.0,0.0,0.0,-0.021,-0.004,0.16,0.0,0.0,0.0,0.0,0.0,0.0,0.0,0.0,0.0,0.004,1.262,12.27,0.0,0.0,0.0,0.0,0.0,0.0,0.0,0.0,0.0
1576083278897721683,470,0,,0.0,0.0,0.0,0.0,0.0,0.0,0.0,0.0,0.0,0.0,0.0,0.0,0.0,-0.035,0.02,0.09,0.0,0.0,0.0,0.0,0.0,0.0,0.0,0.0,0.0,-0.818,0.064,9.94,0.0,0.0,0.0,0.0,0.0,0.0,0.0,0.0,0.0
1576083278966525929,471,0,,0.0,0.0,0.0,0.0,0.0,0.0,0.0,0.0,0.0,0.0,0.0,0.0,0.0,-0.029,0.009,0.08,0.0,0.0,0.0,0.0,0.0,0.0,0.0,0.0,0.0,-0.904,0.57,12.39,0.0,0.0,0.0,0.0,0.0,0.0,0.0,0.0,0.0
1576083279042342789,472,0,,0.0,0.0,0.0,0.0,0.0,0.0,0.0,0.0,0.0,0.0,0.0,0.0,0.0,-0.0,-0.001,0.07,0.0,0.0,0.0,0.0,0.0,0.0,0.0,0.0,0.0,-0.506,0.553,6.98,0.0,0.0,0.0,0.0,0.0,0.0,0.0,0.0,0.0
1576083279102760328,473,0,,0.0,0.0,0.0,0.0,0.0,0.0,0.0,0.0,0.0,0.0,0.0,0.0,0.0,-0.006,0.007,0.07,0.0,0.0,0.0,0.0,0.0,0.0,0.0,0.0,0.0,-0.863,-0.015,12.52,0.0,0.0,0.0,0.0,0.0,0.0,0.0,0.0,0.0
1576083279169595302,474,0,,0.0,0.0,0.0,0.0,0.0,0.0,0.0,0.0,0.0,0.0,0.0,0.0,0.0,0.006,0.01,0.08,0.0,0.0,0.0,0.0,0.0,0.0,0.0,0.0,0.0,-1.018,0.937,11.59,0.0,0.0,0.0,0.0,0.0,0.0,0.0,0.0,0.0
1576083279251365074,475,0,,0.0,0.0,0.0,0.0,0.0,0.0,0.0,0.0,0.0,0.0,0.0,0.0,0.0,0.048,-0.011,0.04,0.0,0.0,0.0,0.0,0.0,0.0,0.0,0.0,0.0,-0.646,1.254,12.81,0.0,0.0,0.0,0.0,0.0,0.0,0.0,0.0,0.0
1576083279302646112,476,0,,0.0,0.0,0.0,0.0,0.0,0.0,0.0,0.0,0.0,0.0,0.0,0.0,0.0,0.003,-0.013,0.02,0.0,0.0,0.0,0.0,0.0,0.0,0.0,0.0,0.0,-1.405,1.205,7.52,0.0,0.0,0.0,0.0,0.0,0.0,0.0,0.0,0.0
1576083279369907238,477,0,,0.0,0.0,0.0,0.0,0.0,0.0,0.0,0.0,0.0,0.0,0.0,0.0,0.0,-0.022,-0.016,0.05,0.0,0.0,0.0,0.0,0.0,0.0,0.0,0.0,0.0,-3.128,0.427,11.45,0.0,0.0,0.0,0.0,0.0,0.0,0.0,0.0,0.0
1576083279447944872,478,0,,0.0,0.0,0.0,0.0,0.0,0.0,0.0,0.0,0.0,0.0,0.0,0.0,0.0,-0.089,-0.009,0.29,0.0,0.0,0.0,0.0,0.0,0.0,0.0,0.0,0.0,-0.842,2.192,8.3,0.0,0.0,0.0,0.0,0.0,0.0,0.0,0.0,0.0
1576083279508332285,479,0,,0.0,0.0,0.0,0.0,0.0,0.0,0.0,0.0,0.0,0.0,0.0,0.0,0.0,-0.042,0.02,0.01,0.0,0.0,0.0,0.0,0.0,0.0,0.0,0.0,0.0,-2.863,-0.284,15.95,0.0,0.0,0.0,0.0,0.0,0.0,0.0,0.0,0.0
1576083279572661501,480,0,,0.0,0.0,0.0,0.0,0.0,0.0,0.0,0.0,0.0,0.0,0.0,0.0,0.0,0.086,0.108,0.01,0.0,0.0,0.0,0.0,0.0,0.0,0.0,0.0,0.0,2.834,4.242,19.97,0.0,0.0,0.0,0.0,0.0,0.0,0.0,0.0,0.0
1576083279644342673,481,0,,0.0,0.0,0.0,0.0,0.0,0.0,0.0,0.0,0.0,0.0,0.0,0.0,0.0,-0.173,-0.184,0.02,0.0,0.0,0.0,0.0,0.0,0.0,0.0,0.0,0.0,-0.806,0.88,3.68,0.0,0.0,0.0,0.0,0.0,0.0,0.0,0.0,0.0
1576083279707100165,482,0,,0.0,0.0,0.0,0.0,0.0,0.0,0.0,0.0,0.0,0.0,0.0,0.0,0.0,0.058,-0.005,-0.02,0.0,0.0,0.0,0.0,0.0,0.0,0.0,0.0,0.0,0.233,0.313,13.54,0.0,0.0,0.0,0.0,0.0,0.0,0.0,0.0,0.0
1576083279849269085,483,0,,0.0,0.0,0.0,0.0,0.0,0.0,0.0,0.0,0.0,0.0,0.0,0.0,0.0,-0.007,-0.002,-0.09,0.0,0.0,0.0,0.0,0.0,0.0,0.0,0.0,0.0,-0.369,-0.846,6.36,0.0,0.0,0.0,0.0,0.0,0.0,0.0,0.0,0.0
1576083279898848448,484,0,,0.0,0.0,0.0,0.0,0.0,0.0,0.0,0.0,0.0,0.0,0.0,0.0,0.0,0.055,0.006,-0.08,0.0,0.0,0.0,0.0,0.0,0.0,0.0,0.0,0.0,0.505,1.892,10.22,0.0,0.0,0.0,0.0,0.0,0.0,0.0,0.0,0.0
1576083279965835012,485,0,,0.0,0.0,0.0,0.0,0.0,0.0,0.0,0.0,0.0,0.0,0.0,0.0,0.0,0.02,-0.013,-0.11,0.0,0.0,0.0,0.0,0.0,0.0,0.0,0.0,0.0,-0.14,-1.066,10.82,0.0,0.0,0.0,0.0,0.0,0.0,0.0,0.0,0.0
1576083280049250357,486,0,,0.0,0.0,0.0,0.0,0.0,0.0,0.0,0.0,0.0,0.0,0.0,0.0,0.0,-0.004,0.024,-0.1,0.0,0.0,0.0,0.0,0.0,0.0,0.0,0.0,0.0,-0.751,0.937,9.35,0.0,0.0,0.0,0.0,0.0,0.0,0.0,0.0,0.0
1576083280101188274,487,0,,0.0,0.0,0.0,0.0,0.0,0.0,0.0,0.0,0.0,0.0,0.0,0.0,0.0,0.028,-0.003,-0.13,0.0,0.0,0.0,0.0,0.0,0.0,0.0,0.0,0.0,-1.347,0.448,12.38,0.0,0.0,0.0,0.0,0.0,0.0,0.0,0.0,0.0
1576083280167012888,488,0,,0.0,0.0,0.0,0.0,0.0,0.0,0.0,0.0,0.0,0.0,0.0,0.0,0.0,-0.013,-0.008,-0.16,0.0,0.0,0.0,0.0,0.0,0.0,0.0,0.0,0.0,-0.973,0.078,6.21,0.0,0.0,0.0,0.0,0.0,0.0,0.0,0.0,0.0
1576083280246327055,489,0,,0.0,0.0,0.0,0.0,0.0,0.0,0.0,0.0,0.0,0.0,0.0,0.0,0.0,0.03,-0.002,-0.08,0.0,0.0,0.0,0.0,0.0,0.0,0.0,0.0,0.0,-0.711,-0.405,10.48,0.0,0.0,0.0,0.0,0.0,0.0,0.0,0.0,0.0
1576083280304469691,490,0,,0.0,0.0,0.0,0.0,0.0,0.0,0.0,0.0,0.0,0.0,0.0,0.0,0.0,0.037,-0.037,-0.14,0.0,0.0,0.0,0.0,0.0,0.0,0.0,0.0,0.0,-0.154,1.357,11.19,0.0,0.0,0.0,0.0,0.0,0.0,0.0,0.0,0.0
1576083280371394011,491,0,,0.0,0.0,0.0,0.0,0.0,0.0,0.0,0.0,0.0,0.0,0.0,0.0,0.0,0.02,0.005,-0.07,0.0,0.0,0.0,0.0,0.0,0.0,0.0,0.0,0.0,-0.024,0.342,9.49,0.0,0.0,0.0,0.0,0.0,0.0,0.0,0.0,0.0
1576083280468044421,492,0,,0.0,0.0,0.0,0.0,0.0,0.0,0.0,0.0,0.0,0.0,0.0,0.0,0.0,-0.043,0.002,-0.06,0.0,0.0,0.0,0.0,0.0,0.0,0.0,0.0,0.0,-0.718,0.347,12.69,0.0,0.0,0.0,0.0,0.0,0.0,0.0,0.0,0.0
1576083280503312072,493,0,,0.0,0.0,0.0,0.0,0.0,0.0,0.0,0.0,0.0,0.0,0.0,0.0,0.0,-0.012,-0.029,-0.04,0.0,0.0,0.0,0.0,0.0,0.0,0.0,0.0,0.0,-0.513,-0.097,9.15,0.0,0.0,0.0,0.0,0.0,0.0,0.0,0.0,0.0
1576083280570307240,494,0,,0.0,0.0,0.0,0.0,0.0,0.0,0.0,0.0,0.0,0.0,0.0,0.0,0.0,-0.068,-0.016,-0.08,0.0,0.0,0.0,0.0,0.0,0.0,0.0,0.0,0.0,0.062,-0.757,10.77,0.0,0.0,0.0,0.0,0.0,0.0,0.0,0.0,0.0
1576083280648486288,495,0,,0.0,0.0,0.0,0.0,0.0,0.0,0.0,0.0,0.0,0.0,0.0,0.0,0.0,0.118,-0.017,-0.18,0.0,0.0,0.0,0.0,0.0,0.0,0.0,0.0,0.0,-0.26,1.979,13.67,0.0,0.0,0.0,0.0,0.0,0.0,0.0,0.0,0.0
1576083280772728288,496,0,,0.0,0.0,0.0,0.0,0.0,0.0,0.0,0.0,0.0,0.0,0.0,0.0,0.0,0.086,0.222,-0.58,0.0,0.0,0.0,0.0,0.0,0.0,0.0,0.0,0.0,0.182,-1.591,4.39,0.0,0.0,0.0,0.0,0.0,0.0,0.0,0.0,0.0
1576083280841634041,497,0,,0.0,0.0,0.0,0.0,0.0,0.0,0.0,0.0,0.0,0.0,0.0,0.0,0.0,-0.097,-0.242,-0.06,0.0,0.0,0.0,0.0,0.0,0.0,0.0,0.0,0.0,-0.411,1.096,8.73,0.0,0.0,0.0,0.0,0.0,0.0,0.0,0.0,0.0
1576083280973003606,498,0,,0.0,0.0,0.0,0.0,0.0,0.0,0.0,0.0,0.0,0.0,0.0,0.0,0.0,-0.03,-0.012,0.12,0.0,0.0,0.0,0.0,0.0,0.0,0.0,0.0,0.0,0.321,-2.307,19.62,0.0,0.0,0.0,0.0,0.0,0.0,0.0,0.0,0.0
1576083281048265549,499,0,,0.0,0.0,0.0,0.0,0.0,0.0,0.0,0.0,0.0,0.0,0.0,0.0,0.0,-0.092,0.06,0.01,0.0,0.0,0.0,0.0,0.0,0.0,0.0,0.0,0.0,0.808,0.268,9.81,0.0,0.0,0.0,0.0,0.0,0.0,0.0,0.0,0.0
1576083281097474767,500,0,,0.0,0.0,0.0,0.0,0.0,0.0,0.0,0.0,0.0,0.0,0.0,0.0,0.0,-0.001,0.097,0.09,0.0,0.0,0.0,0.0,0.0,0.0,0.0,0.0,0.0,0.373,0.876,10.82,0.0,0.0,0.0,0.0,0.0,0.0,0.0,0.0,0.0
1576083281164741906,501,0,,0.0,0.0,0.0,0.0,0.0,0.0,0.0,0.0,0.0,0.0,0.0,0.0,0.0,0.01,-0.046,0.05,0.0,0.0,0.0,0.0,0.0,0.0,0.0,0.0,0.0,0.117,0.818,7.22,0.0,0.0,0.0,0.0,0.0,0.0,0.0,0.0,0.0
1576083281245445085,502,0,,0.0,0.0,0.0,0.0,0.0,0.0,0.0,0.0,0.0,0.0,0.0,0.0,0.0,-0.008,-0.021,0.08,0.0,0.0,0.0,0.0,0.0,0.0,0.0,0.0,0.0,0.392,-0.223,15.67,0.0,0.0,0.0,0.0,0.0,0.0,0.0,0.0,0.0
1576083281322639719,503,0,,0.0,0.0,0.0,0.0,0.0,0.0,0.0,0.0,0.0,0.0,0.0,0.0,0.0,0.017,-0.01,0.01,0.0,0.0,0.0,0.0,0.0,0.0,0.0,0.0,0.0,-0.541,1.128,9.03,0.0,0.0,0.0,0.0,0.0,0.0,0.0,0.0,0.0
1576083281368352044,504,0,,0.0,0.0,0.0,0.0,0.0,0.0,0.0,0.0,0.0,0.0,0.0,0.0,0.0,0.049,-0.022,0.04,0.0,0.0,0.0,0.0,0.0,0.0,0.0,0.0,0.0,-0.869,0.096,9.76,0.0,0.0,0.0,0.0,0.0,0.0,0.0,0.0,0.0
1576083281442964759,505,0,,0.0,0.0,0.0,0.0,0.0,0.0,0.0,0.0,0.0,0.0,0.0,0.0,0.0,0.005,0.015,0.0,0.0,0.0,0.0,0.0,0.0,0.0,0.0,0.0,0.0,-0.891,0.2,10.57,0.0,0.0,0.0,0.0,0.0,0.0,0.0,0.0,0.0
1576083281505162222,506,0,,0.0,0.0,0.0,0.0,0.0,0.0,0.0,0.0,0.0,0.0,0.0,0.0,0.0,0.025,-0.017,0.01,0.0,0.0,0.0,0.0,0.0,0.0,0.0,0.0,0.0,0.174,0.215,9.99,0.0,0.0,0.0,0.0,0.0,0.0,0.0,0.0,0.0
1576083281567551363,507,0,,0.0,0.0,0.0,0.0,0.0,0.0,0.0,0.0,0.0,0.0,0.0,0.0,0.0,0.015,0.003,0.01,0.0,0.0,0.0,0.0,0.0,0.0,0.0,0.0,0.0,-0.411,0.731,7.46,0.0,0.0,0.0,0.0,0.0,0.0,0.0,0.0,0.0
1576083281648483370,508,0,,0.0,0.0,0.0,0.0,0.0,0.0,0.0,0.0,0.0,0.0,0.0,0.0,0.0,0.016,-0.0,0.01,0.0,0.0,0.0,0.0,0.0,0.0,0.0,0.0,0.0,-0.146,0.557,10.29,0.0,0.0,0.0,0.0,0.0,0.0,0.0,0.0,0.0
1576083281702870137,509,0,,0.0,0.0,0.0,0.0,0.0,0.0,0.0,0.0,0.0,0.0,0.0,0.0,0.0,-0.022,-0.006,0.03,0.0,0.0,0.0,0.0,0.0,0.0,0.0,0.0,0.0,0.055,-0.284,9.89,0.0,0.0,0.0,0.0,0.0,0.0,0.0,0.0,0.0
1576083281771644558,510,0,,0.0,0.0,0.0,0.0,0.0,0.0,0.0,0.0,0.0,0.0,0.0,0.0,0.0,-0.05,0.024,0.03,0.0,0.0,0.0,0.0,0.0,0.0,0.0,0.0,0.0,-0.483,-0.269,14.56,0.0,0.0,0.0,0.0,0.0,0.0,0.0,0.0,0.0
1576083281844049088,511,0,,0.0,0.0,0.0,0.0,0.0,0.0,0.0,0.0,0.0,0.0,0.0,0.0,0.0,-0.018,-0.012,0.05,0.0,0.0,0.0,0.0,0.0,0.0,0.0,0.0,0.0,-0.308,0.05,5.32,0.0,0.0,0.0,0.0,0.0,0.0,0.0,0.0,0.0
1576083281908589732,512,0,,0.0,0.0,0.0,0.0,0.0,0.0,0.0,0.0,0.0,0.0,0.0,0.0,0.0,-0.007,0.011,0.06,0.0,0.0,0.0,0.0,0.0,0.0,0.0,0.0,0.0,-0.27,-0.17,11.0,0.0,0.0,0.0,0.0,0.0,0.0,0.0,0.0,0.0
1576083281973532708,513,0,,0.0,0.0,0.0,0.0,0.0,0.0,0.0,0.0,0.0,0.0,0.0,0.0,0.0,0.022,0.027,0.09,0.0,0.0,0.0,0.0,0.0,0.0,0.0,0.0,0.0,-0.53,0.524,9.86,0.0,0.0,0.0,0.0,0.0,0.0,0.0,0.0,0.0
1576083282042752077,514,0,,0.0,0.0,0.0,0.0,0.0,0.0,0.0,0.0,0.0,0.0,0.0,0.0,0.0,-0.014,-0.015,0.12,0.0,0.0,0.0,0.0,0.0,0.0,0.0,0.0,0.0,-0.27,0.662,9.1,0.0,0.0,0.0,0.0,0.0,0.0,0.0,0.0,0.0
1576083282108873562,515,0,,0.0,0.0,0.0,0.0,0.0,0.0,0.0,0.0,0.0,0.0,0.0,0.0,0.0,0.015,0.014,0.16,0.0,0.0,0.0,0.0,0.0,0.0,0.0,0.0,0.0,-0.096,0.607,8.68,0.0,0.0,0.0,0.0,0.0,0.0,0.0,0.0,0.0
1576083282191992297,516,0,,0.0,0.0,0.0,0.0,0.0,0.0,0.0,0.0,0.0,0.0,0.0,0.0,0.0,-0.022,0.163,0.07,0.0,0.0,0.0,0.0,0.0,0.0,0.0,0.0,0.0,-0.575,-0.002,4.48,0.0,0.0,0.0,0.0,0.0,0.0,0.0,0.0,0.0
1576083282297532810,517,0,,0.0,0.0,0.0,0.0,0.0,0.0,0.0,0.0,0.0,0.0,0.0,0.0,0.0,0.151,-0.203,0.13,0.0,0.0,0.0,0.0,0.0,0.0,0.0,0.0,0.0,0.308,1.197,5.44,0.0,0.0,0.0,0.0,0.0,0.0,0.0,0.0,0.0
1576083282367593591,518,0,,0.0,0.0,0.0,0.0,0.0,0.0,0.0,0.0,0.0,0.0,0.0,0.0,0.0,-0.007,-0.027,0.2,0.0,0.0,0.0,0.0,0.0,0.0,0.0,0.0,0.0,0.244,3.165,6.87,0.0,0.0,0.0,0.0,0.0,0.0,0.0,0.0,0.0
1576083282444271921,519,0,,0.0,0.0,0.0,0.0,0.0,0.0,0.0,0.0,0.0,0.0,0.0,0.0,0.0,0.019,0.089,-0.64,0.0,0.0,0.0,0.0,0.0,0.0,0.0,0.0,0.0,-0.24,0.523,11.99,0.0,0.0,0.0,0.0,0.0,0.0,0.0,0.0,0.0
1576083282497973605,520,0,,0.0,0.0,0.0,0.0,0.0,0.0,0.0,0.0,0.0,0.0,0.0,0.0,0.0,-0.097,-0.074,-0.1,0.0,0.0,0.0,0.0,0.0,0.0,0.0,0.0,0.0,-1.566,-1.012,10.87,0.0,0.0,0.0,0.0,0.0,0.0,0.0,0.0,0.0
1576083282577988598,521,0,,0.0,0.0,0.0,0.0,0.0,0.0,0.0,0.0,0.0,0.0,0.0,0.0,0.0,-0.005,0.013,-0.19,0.0,0.0,0.0,0.0,0.0,0.0,0.0,0.0,0.0,0.309,1.11,8.18,0.0,0.0,0.0,0.0,0.0,0.0,0.0,0.0,0.0
1576083282644094508,522,0,,0.0,0.0,0.0,0.0,0.0,0.0,0.0,0.0,0.0,0.0,0.0,0.0,0.0,0.035,0.011,-0.15,0.0,0.0,0.0,0.0,0.0,0.0,0.0,0.0,0.0,-0.361,-0.667,9.62,0.0,0.0,0.0,0.0,0.0,0.0,0.0,0.0,0.0
1576083282700780922,523,0,,0.0,0.0,0.0,0.0,0.0,0.0,0.0,0.0,0.0,0.0,0.0,0.0,0.0,0.017,-0.014,-0.1,0.0,0.0,0.0,0.0,0.0,0.0,0.0,0.0,0.0,0.177,1.186,9.35,0.0,0.0,0.0,0.0,0.0,0.0,0.0,0.0,0.0
1576083282772499638,524,0,,0.0,0.0,0.0,0.0,0.0,0.0,0.0,0.0,0.0,0.0,0.0,0.0,0.0,0.013,0.007,0.01,0.0,0.0,0.0,0.0,0.0,0.0,0.0,0.0,0.0,-0.706,-0.339,9.98,0.0,0.0,0.0,0.0,0.0,0.0,0.0,0.0,0.0
1576083282843341862,525,0,,0.0,0.0,0.0,0.0,0.0,0.0,0.0,0.0,0.0,0.0,0.0,0.0,0.0,0.022,-0.011,0.05,0.0,0.0,0.0,0.0,0.0,0.0,0.0,0.0,0.0,-0.332,0.992,10.54,0.0,0.0,0.0,0.0,0.0,0.0,0.0,0.0,0.0
1576083282901850552,526,0,,0.0,0.0,0.0,0.0,0.0,0.0,0.0,0.0,0.0,0.0,0.0,0.0,0.0,-0.014,-0.003,0.07,0.0,0.0,0.0,0.0,0.0,0.0,0.0,0.0,0.0,-1.463,-0.137,9.85,0.0,0.0,0.0,0.0,0.0,0.0,0.0,0.0,0.0
1576083283105891663,527,0,,0.0,0.0,0.0,0.0,0.0,0.0,0.0,0.0,0.0,0.0,0.0,0.0,0.0,-0.007,-0.005,0.06,0.0,0.0,0.0,0.0,0.0,0.0,0.0,0.0,0.0,-0.884,0.505,9.74,0.0,0.0,0.0,0.0,0.0,0.0,0.0,0.0,0.0
1576083283107032682,528,0,,0.0,0.0,0.0,0.0,0.0,0.0,0.0,0.0,0.0,0.0,0.0,0.0,0.0,-0.009,0.007,0.04,0.0,0.0,0.0,0.0,0.0,0.0,0.0,0.0,0.0,-0.417,-0.079,12.17,0.0,0.0,0.0,0.0,0.0,0.0,0.0,0.0,0.0
1576083283108375553,529,0,,0.0,0.0,0.0,0.0,0.0,0.0,0.0,0.0,0.0,0.0,0.0,0.0,0.0,-0.001,0.006,0.05,0.0,0.0,0.0,0.0,0.0,0.0,0.0,0.0,0.0,0.519,0.471,9.95,0.0,0.0,0.0,0.0,0.0,0.0,0.0,0.0,0.0
1576083283172553957,530,0,,0.0,0.0,0.0,0.0,0.0,0.0,0.0,0.0,0.0,0.0,0.0,0.0,0.0,0.019,-0.02,0.07,0.0,0.0,0.0,0.0,0.0,0.0,0.0,0.0,0.0,0.264,0.449,8.42,0.0,0.0,0.0,0.0,0.0,0.0,0.0,0.0,0.0
1576083283239346561,531,0,,0.0,0.0,0.0,0.0,0.0,0.0,0.0,0.0,0.0,0.0,0.0,0.0,0.0,0.029,0.026,0.08,0.0,0.0,0.0,0.0,0.0,0.0,0.0,0.0,0.0,-0.626,0.004,8.68,0.0,0.0,0.0,0.0,0.0,0.0,0.0,0.0,0.0
1576083283307580706,532,0,,0.0,0.0,0.0,0.0,0.0,0.0,0.0,0.0,0.0,0.0,0.0,0.0,0.0,0.042,-0.045,0.08,0.0,0.0,0.0,0.0,0.0,0.0,0.0,0.0,0.0,-0.01,0.459,8.97,0.0,0.0,0.0,0.0,0.0,0.0,0.0,0.0,0.0
1576083283373254726,533,0,,0.0,0.0,0.0,0.0,0.0,0.0,0.0,0.0,0.0,0.0,0.0,0.0,0.0,0.006,-0.018,0.05,0.0,0.0,0.0,0.0,0.0,0.0,0.0,0.0,0.0,0.541,0.833,7.37,0.0,0.0,0.0,0.0,0.0,0.0,0.0,0.0,0.0
1576083283443146764,534,0,,0.0,0.0,0.0,0.0,0.0,0.0,0.0,0.0,0.0,0.0,0.0,0.0,0.0,-0.052,0.015,-0.06,0.0,0.0,0.0,0.0,0.0,0.0,0.0,0.0,0.0,0.876,0.747,9.79,0.0,0.0,0.0,0.0,0.0,0.0,0.0,0.0,0.0
1576083283566680816,535,0,,0.0,0.0,0.0,0.0,0.0,0.0,0.0,0.0,0.0,0.0,0.0,0.0,0.0,-0.067,0.011,-0.08,0.0,0.0,0.0,0.0,0.0,0.0,0.0,0.0,0.0,-0.309,-0.146,6.07,0.0,0.0,0.0,0.0,0.0,0.0,0.0,0.0,0.0
1576083283641602964,536,0,,0.0,0.0,0.0,0.0,0.0,0.0,0.0,0.0,0.0,0.0,0.0,0.0,0.0,-0.073,-0.037,-0.15,0.0,0.0,0.0,0.0,0.0,0.0,0.0,0.0,0.0,-0.548,1.544,16.06,0.0,0.0,0.0,0.0,0.0,0.0,0.0,0.0,0.0
1576083283705266847,537,0,,0.0,0.0,0.0,0.0,0.0,0.0,0.0,0.0,0.0,0.0,0.0,0.0,0.0,-0.007,0.031,-0.09,0.0,0.0,0.0,0.0,0.0,0.0,0.0,0.0,0.0,-0.776,1.524,7.77,0.0,0.0,0.0,0.0,0.0,0.0,0.0,0.0,0.0
1576083283766191155,538,0,,0.0,0.0,0.0,0.0,0.0,0.0,0.0,0.0,0.0,0.0,0.0,0.0,0.0,0.024,0.077,-0.0,0.0,0.0,0.0,0.0,0.0,0.0,0.0,0.0,0.0,-0.657,-0.023,10.17,0.0,0.0,0.0,0.0,0.0,0.0,0.0,0.0,0.0
1576083283843197641,539,0,,0.0,0.0,0.0,0.0,0.0,0.0,0.0,0.0,0.0,0.0,0.0,0.0,0.0,-0.02,0.015,0.01,0.0,0.0,0.0,0.0,0.0,0.0,0.0,0.0,0.0,-1.679,-0.829,11.0,0.0,0.0,0.0,0.0,0.0,0.0,0.0,0.0,0.0
1576083283924880455,540,0,,0.0,0.0,0.0,0.0,0.0,0.0,0.0,0.0,0.0,0.0,0.0,0.0,0.0,0.197,-0.128,-0.27,0.0,0.0,0.0,0.0,0.0,0.0,0.0,0.0,0.0,-1.231,1.51,9.32,0.0,0.0,0.0,0.0,0.0,0.0,0.0,0.0,0.0
1576083283968004531,541,0,,0.0,0.0,0.0,0.0,0.0,0.0,0.0,0.0,0.0,0.0,0.0,0.0,0.0,0.006,0.009,0.31,0.0,0.0,0.0,0.0,0.0,0.0,0.0,0.0,0.0,-0.184,0.146,8.01,0.0,0.0,0.0,0.0,0.0,0.0,0.0,0.0,0.0
1576083284045518885,542,0,,0.0,0.0,0.0,0.0,0.0,0.0,0.0,0.0,0.0,0.0,0.0,0.0,0.0,-0.037,0.037,-0.09,0.0,0.0,0.0,0.0,0.0,0.0,0.0,0.0,0.0,-0.774,1.456,8.74,0.0,0.0,0.0,0.0,0.0,0.0,0.0,0.0,0.0
1576083284104340488,543,0,,0.0,0.0,0.0,0.0,0.0,0.0,0.0,0.0,0.0,0.0,0.0,0.0,0.0,-0.075,-0.007,-0.12,0.0,0.0,0.0,0.0,0.0,0.0,0.0,0.0,0.0,-0.843,-0.21,11.41,0.0,0.0,0.0,0.0,0.0,0.0,0.0,0.0,0.0
1576083284171797820,544,0,,0.0,0.0,0.0,0.0,0.0,0.0,0.0,0.0,0.0,0.0,0.0,0.0,0.0,0.044,-0.041,-0.12,0.0,0.0,0.0,0.0,0.0,0.0,0.0,0.0,0.0,0.616,-0.548,4.13,0.0,0.0,0.0,0.0,0.0,0.0,0.0,0.0,0.0
1576083284243955280,545,0,,0.0,0.0,0.0,0.0,0.0,0.0,0.0,0.0,0.0,0.0,0.0,0.0,0.0,-0.024,-0.005,-0.29,0.0,0.0,0.0,0.0,0.0,0.0,0.0,0.0,0.0,0.145,0.35,11.21,0.0,0.0,0.0,0.0,0.0,0.0,0.0,0.0,0.0
1576083284303082096,546,0,,0.0,0.0,0.0,0.0,0.0,0.0,0.0,0.0,0.0,0.0,0.0,0.0,0.0,-0.013,0.002,-0.25,0.0,0.0,0.0,0.0,0.0,0.0,0.0,0.0,0.0,-0.401,-0.054,7.43,0.0,0.0,0.0,0.0,0.0,0.0,0.0,0.0,0.0
1576083284371844526,547,0,,0.0,0.0,0.0,0.0,0.0,0.0,0.0,0.0,0.0,0.0,0.0,0.0,0.0,0.006,-0.013,-0.25,0.0,0.0,0.0,0.0,0.0,0.0,0.0,0.0,0.0,0.059,-0.067,9.01,0.0,0.0,0.0,0.0,0.0,0.0,0.0,0.0,0.0
1576083284505485682,548,0,,0.0,0.0,0.0,0.0,0.0,0.0,0.0,0.0,0.0,0.0,0.0,0.0,0.0,0.01,0.02,-0.02,0.0,0.0,0.0,0.0,0.0,0.0,0.0,0.0,0.0,-0.86,-0.31,11.12,0.0,0.0,0.0,0.0,0.0,0.0,0.0,0.0,0.0
1576083284570868745,549,0,,0.0,0.0,0.0,0.0,0.0,0.0,0.0,0.0,0.0,0.0,0.0,0.0,0.0,0.022,-0.02,0.07,0.0,0.0,0.0,0.0,0.0,0.0,0.0,0.0,0.0,-1.18,0.351,11.68,0.0,0.0,0.0,0.0,0.0,0.0,0.0,0.0,0.0
1576083284641292595,550,0,,0.0,0.0,0.0,0.0,0.0,0.0,0.0,0.0,0.0,0.0,0.0,0.0,0.0,-0.024,0.025,0.09,0.0,0.0,0.0,0.0,0.0,0.0,0.0,0.0,0.0,-0.255,0.754,10.8,0.0,0.0,0.0,0.0,0.0,0.0,0.0,0.0,0.0
1576083284708365328,551,0,,0.0,0.0,0.0,0.0,0.0,0.0,0.0,0.0,0.0,0.0,0.0,0.0,0.0,-0.007,-0.016,0.07,0.0,0.0,0.0,0.0,0.0,0.0,0.0,0.0,0.0,-0.211,0.407,8.82,0.0,0.0,0.0,0.0,0.0,0.0,0.0,0.0,0.0
1576083284847072449,552,0,,0.0,0.0,0.0,0.0,0.0,0.0,0.0,0.0,0.0,0.0,0.0,0.0,0.0,0.031,0.009,0.05,0.0,0.0,0.0,0.0,0.0,0.0,0.0,0.0,0.0,-0.267,-0.004,9.78,0.0,0.0,0.0,0.0,0.0,0.0,0.0,0.0,0.0
1576083284900451321,553,0,,0.0,0.0,0.0,0.0,0.0,0.0,0.0,0.0,0.0,0.0,0.0,0.0,0.0,0.033,0.003,0.0,0.0,0.0,0.0,0.0,0.0,0.0,0.0,0.0,0.0,-0.235,1.614,11.91,0.0,0.0,0.0,0.0,0.0,0.0,0.0,0.0,0.0
1576083284965617402,554,0,,0.0,0.0,0.0,0.0,0.0,0.0,0.0,0.0,0.0,0.0,0.0,0.0,0.0,0.024,-0.035,0.02,0.0,0.0,0.0,0.0,0.0,0.0,0.0,0.0,0.0,-0.123,0.596,2.77,0.0,0.0,0.0,0.0,0.0,0.0,0.0,0.0,0.0
1576083285060586450,555,0,,0.0,0.0,0.0,0.0,0.0,0.0,0.0,0.0,0.0,0.0,0.0,0.0,0.0,-0.078,0.023,-0.28,0.0,0.0,0.0,0.0,0.0,0.0,0.0,0.0,0.0,-0.138,-0.285,12.61,0.0,0.0,0.0,0.0,0.0,0.0,0.0,0.0,0.0
1576083285101076440,556,0,,0.0,0.0,0.0,0.0,0.0,0.0,0.0,0.0,0.0,0.0,0.0,0.0,0.0,0.045,0.037,-0.0,0.0,0.0,0.0,0.0,0.0,0.0,0.0,0.0,0.0,0.457,0.712,12.96,0.0,0.0,0.0,0.0,0.0,0.0,0.0,0.0,0.0
1576083285167591988,557,0,,0.0,0.0,0.0,0.0,0.0,0.0,0.0,0.0,0.0,0.0,0.0,0.0,0.0,-0.048,0.008,0.16,0.0,0.0,0.0,0.0,0.0,0.0,0.0,0.0,0.0,-1.057,-0.304,9.13,0.0,0.0,0.0,0.0,0.0,0.0,0.0,0.0,0.0
1576083285243314810,558,0,,0.0,0.0,0.0,0.0,0.0,0.0,0.0,0.0,0.0,0.0,0.0,0.0,0.0,-0.03,-0.02,0.04,0.0,0.0,0.0,0.0,0.0,0.0,0.0,0.0,0.0,0.901,2.102,11.28,0.0,0.0,0.0,0.0,0.0,0.0,0.0,0.0,0.0
1576083285301398426,559,0,,0.0,0.0,0.0,0.0,0.0,0.0,0.0,0.0,0.0,0.0,0.0,0.0,0.0,0.013,0.014,-0.0,0.0,0.0,0.0,0.0,0.0,0.0,0.0,0.0,0.0,-1.127,-0.634,7.85,0.0,0.0,0.0,0.0,0.0,0.0,0.0,0.0,0.0
1576083285370610380,560,0,,0.0,0.0,0.0,0.0,0.0,0.0,0.0,0.0,0.0,0.0,0.0,0.0,0.0,-0.03,0.02,0.01,0.0,0.0,0.0,0.0,0.0,0.0,0.0,0.0,0.0,-1.087,1.839,10.71,0.0,0.0,0.0,0.0,0.0,0.0,0.0,0.0,0.0
1576083285448565249,561,0,,0.0,0.0,0.0,0.0,0.0,0.0,0.0,0.0,0.0,0.0,0.0,0.0,0.0,-0.008,0.015,-0.02,0.0,0.0,0.0,0.0,0.0,0.0,0.0,0.0,0.0,-0.646,-0.598,10.16,0.0,0.0,0.0,0.0,0.0,0.0,0.0,0.0,0.0
1576083285503718867,562,0,,0.0,0.0,0.0,0.0,0.0,0.0,0.0,0.0,0.0,0.0,0.0,0.0,0.0,-0.032,-0.004,0.03,0.0,0.0,0.0,0.0,0.0,0.0,0.0,0.0,0.0,-0.656,0.331,12.61,0.0,0.0,0.0,0.0,0.0,0.0,0.0,0.0,0.0
1576083285571176986,563,0,,0.0,0.0,0.0,0.0,0.0,0.0,0.0,0.0,0.0,0.0,0.0,0.0,0.0,0.002,-0.004,0.03,0.0,0.0,0.0,0.0,0.0,0.0,0.0,0.0,0.0,-0.242,-0.728,7.25,0.0,0.0,0.0,0.0,0.0,0.0,0.0,0.0,0.0
1576083285704579831,564,0,,0.0,0.0,0.0,0.0,0.0,0.0,0.0,0.0,0.0,0.0,0.0,0.0,0.0,-0.0,-0.01,-0.01,0.0,0.0,0.0,0.0,0.0,0.0,0.0,0.0,0.0,0.204,-0.11,6.55,0.0,0.0,0.0,0.0,0.0,0.0,0.0,0.0,0.0
1576083285773077171,565,0,,0.0,0.0,0.0,0.0,0.0,0.0,0.0,0.0,0.0,0.0,0.0,0.0,0.0,0.013,0.018,0.0,0.0,0.0,0.0,0.0,0.0,0.0,0.0,0.0,0.0,0.478,1.404,10.51,0.0,0.0,0.0,0.0,0.0,0.0,0.0,0.0,0.0
1576083285867778983,566,0,,0.0,0.0,0.0,0.0,0.0,0.0,0.0,0.0,0.0,0.0,0.0,0.0,0.0,0.016,-0.007,-0.02,0.0,0.0,0.0,0.0,0.0,0.0,0.0,0.0,0.0,-0.822,-0.158,8.6,0.0,0.0,0.0,0.0,0.0,0.0,0.0,0.0,0.0
1576083285965265059,567,0,,0.0,0.0,0.0,0.0,0.0,0.0,0.0,0.0,0.0,0.0,0.0,0.0,0.0,-0.02,0.006,0.03,0.0,0.0,0.0,0.0,0.0,0.0,0.0,0.0,0.0,-0.28,-0.042,8.59,0.0,0.0,0.0,0.0,0.0,0.0,0.0,0.0,0.0
1576083286044855522,568,0,,0.0,0.0,0.0,0.0,0.0,0.0,0.0,0.0,0.0,0.0,0.0,0.0,0.0,-0.018,-0.008,-0.03,0.0,0.0,0.0,0.0,0.0,0.0,0.0,0.0,0.0,0.535,0.549,5.52,0.0,0.0,0.0,0.0,0.0,0.0,0.0,0.0,0.0
1576083286099707579,569,0,,0.0,0.0,0.0,0.0,0.0,0.0,0.0,0.0,0.0,0.0,0.0,0.0,0.0,-0.01,0.012,-0.07,0.0,0.0,0.0,0.0,0.0,0.0,0.0,0.0,0.0,-0.36,-0.433,8.37,0.0,0.0,0.0,0.0,0.0,0.0,0.0,0.0,0.0
1576083286170815203,570,0,,0.0,0.0,0.0,0.0,0.0,0.0,0.0,0.0,0.0,0.0,0.0,0.0,0.0,-0.001,0.003,-0.09,0.0,0.0,0.0,0.0,0.0,0.0,0.0,0.0,0.0,-0.729,-0.19,7.96,0.0,0.0,0.0,0.0,0.0,0.0,0.0,0.0,0.0
1576083286242718538,571,0,,0.0,0.0,0.0,0.0,0.0,0.0,0.0,0.0,0.0,0.0,0.0,0.0,0.0,-0.009,-0.005,-0.05,0.0,0.0,0.0,0.0,0.0,0.0,0.0,0.0,0.0,-0.783,-0.229,12.49,0.0,0.0,0.0,0.0,0.0,0.0,0.0,0.0,0.0
1576083286301462131,572,0,,0.0,0.0,0.0,0.0,0.0,0.0,0.0,0.0,0.0,0.0,0.0,0.0,0.0,-0.003,0.014,0.03,0.0,0.0,0.0,0.0,0.0,0.0,0.0,0.0,0.0,-0.945,1.092,11.14,0.0,0.0,0.0,0.0,0.0,0.0,0.0,0.0,0.0
1576083286380413687,573,0,,0.0,0.0,0.0,0.0,0.0,0.0,0.0,0.0,0.0,0.0,0.0,0.0,0.0,-0.035,0.005,0.05,0.0,0.0,0.0,0.0,0.0,0.0,0.0,0.0,0.0,-0.643,0.636,19.49,0.0,0.0,0.0,0.0,0.0,0.0,0.0,0.0,0.0
1576083286438696690,574,0,,0.0,0.0,0.0,0.0,0.0,0.0,0.0,0.0,0.0,0.0,0.0,0.0,0.0,-0.015,0.133,-0.19,0.0,0.0,0.0,0.0,0.0,0.0,0.0,0.0,0.0,-1.544,1.46,14.15,0.0,0.0,0.0,0.0,0.0,0.0,0.0,0.0,0.0
1576083286500700076,575,0,,0.0,0.0,0.0,0.0,0.0,0.0,0.0,0.0,0.0,0.0,0.0,0.0,0.0,0.011,-0.062,0.18,0.0,0.0,0.0,0.0,0.0,0.0,0.0,0.0,0.0,-0.071,0.016,13.08,0.0,0.0,0.0,0.0,0.0,0.0,0.0,0.0,0.0
1576083286567691755,576,0,,0.0,0.0,0.0,0.0,0.0,0.0,0.0,0.0,0.0,0.0,0.0,0.0,0.0,-0.068,-0.026,0.08,0.0,0.0,0.0,0.0,0.0,0.0,0.0,0.0,0.0,-0.269,0.154,6.02,0.0,0.0,0.0,0.0,0.0,0.0,0.0,0.0,0.0
1576083286640879018,577,0,,0.0,0.0,0.0,0.0,0.0,0.0,0.0,0.0,0.0,0.0,0.0,0.0,0.0,0.033,-0.026,-0.2,0.0,0.0,0.0,0.0,0.0,0.0,0.0,0.0,0.0,-0.02,-0.347,17.35,0.0,0.0,0.0,0.0,0.0,0.0,0.0,0.0,0.0
1576083286703435490,578,0,,0.0,0.0,0.0,0.0,0.0,0.0,0.0,0.0,0.0,0.0,0.0,0.0,0.0,-0.021,0.0,-0.15,0.0,0.0,0.0,0.0,0.0,0.0,0.0,0.0,0.0,0.506,-0.112,11.08,0.0,0.0,0.0,0.0,0.0,0.0,0.0,0.0,0.0
1576083286772056659,579,0,,0.0,0.0,0.0,0.0,0.0,0.0,0.0,0.0,0.0,0.0,0.0,0.0,0.0,-0.012,-0.015,-0.13,0.0,0.0,0.0,0.0,0.0,0.0,0.0,0.0,0.0,0.651,0.917,10.37,0.0,0.0,0.0,0.0,0.0,0.0,0.0,0.0,0.0
1576083286903941142,580,0,,0.0,0.0,0.0,0.0,0.0,0.0,0.0,0.0,0.0,0.0,0.0,0.0,0.0,-0.004,-0.006,0.01,0.0,0.0,0.0,0.0,0.0,0.0,0.0,0.0,0.0,-0.324,0.147,10.03,0.0,0.0,0.0,0.0,0.0,0.0,0.0,0.0,0.0
1576083286972339877,581,0,,0.0,0.0,0.0,0.0,0.0,0.0,0.0,0.0,0.0,0.0,0.0,0.0,0.0,-0.018,0.005,0.07,0.0,0.0,0.0,0.0,0.0,0.0,0.0,0.0,0.0,-0.221,-0.365,7.49,0.0,0.0,0.0,0.0,0.0,0.0,0.0,0.0,0.0
1576083287042496034,582,0,,0.0,0.0,0.0,0.0,0.0,0.0,0.0,0.0,0.0,0.0,0.0,0.0,0.0,0.046,0.01,0.13,0.0,0.0,0.0,0.0,0.0,0.0,0.0,0.0,0.0,0.078,0.208,8.63,0.0,0.0,0.0,0.0,0.0,0.0,0.0,0.0,0.0
1576083287106977016,583,0,,0.0,0.0,0.0,0.0,0.0,0.0,0.0,0.0,0.0,0.0,0.0,0.0,0.0,0.054,0.011,0.13,0.0,0.0,0.0,0.0,0.0,0.0,0.0,0.0,0.0,-0.232,-0.07,9.81,0.0,0.0,0.0,0.0,0.0,0.0,0.0,0.0,0.0
1576083287239054628,584,0,,0.0,0.0,0.0,0.0,0.0,0.0,0.0,0.0,0.0,0.0,0.0,0.0,0.0,-0.0,0.009,0.08,0.0,0.0,0.0,0.0,0.0,0.0,0.0,0.0,0.0,-0.342,-0.059,9.04,0.0,0.0,0.0,0.0,0.0,0.0,0.0,0.0,0.0
1576083287297881450,585,0,,0.0,0.0,0.0,0.0,0.0,0.0,0.0,0.0,0.0,0.0,0.0,0.0,0.0,-0.052,0.023,0.08,0.0,0.0,0.0,0.0,0.0,0.0,0.0,0.0,0.0,-1.012,0.308,8.54,0.0,0.0,0.0,0.0,0.0,0.0,0.0,0.0,0.0
1576083287366906274,586,0,,0.0,0.0,0.0,0.0,0.0,0.0,0.0,0.0,0.0,0.0,0.0,0.0,0.0,-0.052,-0.007,0.07,0.0,0.0,0.0,0.0,0.0,0.0,0.0,0.0,0.0,-0.287,0.039,10.15,0.0,0.0,0.0,0.0,0.0,0.0,0.0,0.0,0.0
1576083287437519096,587,0,,0.0,0.0,0.0,0.0,0.0,0.0,0.0,0.0,0.0,0.0,0.0,0.0,0.0,-0.046,-0.033,-0.03,0.0,0.0,0.0,0.0,0.0,0.0,0.0,0.0,0.0,-0.418,0.012,14.71,0.0,0.0,0.0,0.0,0.0,0.0,0.0,0.0,0.0
1576083287499815332,588,0,,0.0,0.0,0.0,0.0,0.0,0.0,0.0,0.0,0.0,0.0,0.0,0.0,0.0,0.011,0.002,-0.08,0.0,0.0,0.0,0.0,0.0,0.0,0.0,0.0,0.0,-0.465,0.457,10.17,0.0,0.0,0.0,0.0,0.0,0.0,0.0,0.0,0.0
1576083287566244428,589,0,,0.0,0.0,0.0,0.0,0.0,0.0,0.0,0.0,0.0,0.0,0.0,0.0,0.0,0.105,-0.026,-0.09,0.0,0.0,0.0,0.0,0.0,0.0,0.0,0.0,0.0,-0.981,-0.03,9.71,0.0,0.0,0.0,0.0,0.0,0.0,0.0,0.0,0.0
1576083287636937608,590,0,,0.0,0.0,0.0,0.0,0.0,0.0,0.0,0.0,0.0,0.0,0.0,0.0,0.0,0.005,-0.057,-0.15,0.0,0.0,0.0,0.0,0.0,0.0,0.0,0.0,0.0,0.084,0.513,11.44,0.0,0.0,0.0,0.0,0.0,0.0,0.0,0.0,0.0
1576083287719596194,591,0,,0.0,0.0,0.0,0.0,0.0,0.0,0.0,0.0,0.0,0.0,0.0,0.0,0.0,-0.005,-0.041,-0.18,0.0,0.0,0.0,0.0,0.0,0.0,0.0,0.0,0.0,-1.023,-0.512,10.76,0.0,0.0,0.0,0.0,0.0,0.0,0.0,0.0,0.0
1576083287767063455,592,0,,0.0,0.0,0.0,0.0,0.0,0.0,0.0,0.0,0.0,0.0,0.0,0.0,0.0,-0.022,-0.041,-0.21,0.0,0.0,0.0,0.0,0.0,0.0,0.0,0.0,0.0,0.922,-0.445,10.04,0.0,0.0,0.0,0.0,0.0,0.0,0.0,0.0,0.0
1576083287837882110,593,0,,0.0,0.0,0.0,0.0,0.0,0.0,0.0,0.0,0.0,0.0,0.0,0.0,0.0,-0.019,-0.119,-0.24,0.0,0.0,0.0,0.0,0.0,0.0,0.0,0.0,0.0,-0.103,1.09,10.18,0.0,0.0,0.0,0.0,0.0,0.0,0.0,0.0,0.0
1576083287903272053,594,0,,0.0,0.0,0.0,0.0,0.0,0.0,0.0,0.0,0.0,0.0,0.0,0.0,0.0,0.004,0.046,-0.07,0.0,0.0,0.0,0.0,0.0,0.0,0.0,0.0,0.0,0.144,0.927,11.22,0.0,0.0,0.0,0.0,0.0,0.0,0.0,0.0,0.0
1576083287975669998,595,0,,0.0,0.0,0.0,0.0,0.0,0.0,0.0,0.0,0.0,0.0,0.0,0.0,0.0,-0.134,0.006,-0.06,0.0,0.0,0.0,0.0,0.0,0.0,0.0,0.0,0.0,-0.513,-0.883,7.48,0.0,0.0,0.0,0.0,0.0,0.0,0.0,0.0,0.0
1576083288037887056,596,0,,0.0,0.0,0.0,0.0,0.0,0.0,0.0,0.0,0.0,0.0,0.0,0.0,0.0,-0.056,0.058,-0.01,0.0,0.0,0.0,0.0,0.0,0.0,0.0,0.0,0.0,-0.42,0.432,12.24,0.0,0.0,0.0,0.0,0.0,0.0,0.0,0.0,0.0
1576083288106843944,597,0,,0.0,0.0,0.0,0.0,0.0,0.0,0.0,0.0,0.0,0.0,0.0,0.0,0.0,-0.046,0.062,0.11,0.0,0.0,0.0,0.0,0.0,0.0,0.0,0.0,0.0,-0.256,0.181,8.57,0.0,0.0,0.0,0.0,0.0,0.0,0.0,0.0,0.0
1576083288169846701,598,0,,0.0,0.0,0.0,0.0,0.0,0.0,0.0,0.0,0.0,0.0,0.0,0.0,0.0,0.128,-0.07,0.14,0.0,0.0,0.0,0.0,0.0,0.0,0.0,0.0,0.0,-0.928,-1.166,5.44,0.0,0.0,0.0,0.0,0.0,0.0,0.0,0.0,0.0
1576083288314073116,599,0,,0.0,0.0,0.0,0.0,0.0,0.0,0.0,0.0,0.0,0.0,0.0,0.0,0.0,0.025,-0.024,0.15,0.0,0.0,0.0,0.0,0.0,0.0,0.0,0.0,0.0,-2.261,-1.712,12.87,0.0,0.0,0.0,0.0,0.0,0.0,0.0,0.0,0.0
1576083288378639364,600,0,,0.0,0.0,0.0,0.0,0.0,0.0,0.0,0.0,0.0,0.0,0.0,0.0,0.0,0.077,0.012,0.1,0.0,0.0,0.0,0.0,0.0,0.0,0.0,0.0,0.0,0.78,1.444,10.48,0.0,0.0,0.0,0.0,0.0,0.0,0.0,0.0,0.0
1576083288498876740,601,0,,0.0,0.0,0.0,0.0,0.0,0.0,0.0,0.0,0.0,0.0,0.0,0.0,0.0,0.062,-0.002,0.01,0.0,0.0,0.0,0.0,0.0,0.0,0.0,0.0,0.0,0.452,0.3,13.81,0.0,0.0,0.0,0.0,0.0,0.0,0.0,0.0,0.0
1576083288567192691,602,0,,0.0,0.0,0.0,0.0,0.0,0.0,0.0,0.0,0.0,0.0,0.0,0.0,0.0,0.058,-0.018,-0.01,0.0,0.0,0.0,0.0,0.0,0.0,0.0,0.0,0.0,-0.535,1.022,7.28,0.0,0.0,0.0,0.0,0.0,0.0,0.0,0.0,0.0
1576083288632927237,603,0,,0.0,0.0,0.0,0.0,0.0,0.0,0.0,0.0,0.0,0.0,0.0,0.0,0.0,-0.015,0.001,-0.07,0.0,0.0,0.0,0.0,0.0,0.0,0.0,0.0,0.0,-0.008,-0.164,5.12,0.0,0.0,0.0,0.0,0.0,0.0,0.0,0.0,0.0
1576083288704652881,604,0,,0.0,0.0,0.0,0.0,0.0,0.0,0.0,0.0,0.0,0.0,0.0,0.0,0.0,-0.045,-0.004,-0.1,0.0,0.0,0.0,0.0,0.0,0.0,0.0,0.0,0.0,-0.518,0.24,12.38,0.0,0.0,0.0,0.0,0.0,0.0,0.0,0.0,0.0
1576083288768694837,605,0,,0.0,0.0,0.0,0.0,0.0,0.0,0.0,0.0,0.0,0.0,0.0,0.0,0.0,-0.059,0.025,-0.06,0.0,0.0,0.0,0.0,0.0,0.0,0.0,0.0,0.0,-0.328,0.194,9.28,0.0,0.0,0.0,0.0,0.0,0.0,0.0,0.0,0.0
1576083288837613238,606,0,,0.0,0.0,0.0,0.0,0.0,0.0,0.0,0.0,0.0,0.0,0.0,0.0,0.0,-0.013,-0.025,-0.08,0.0,0.0,0.0,0.0,0.0,0.0,0.0,0.0,0.0,-0.163,0.228,10.24,0.0,0.0,0.0,0.0,0.0,0.0,0.0,0.0,0.0
1576083288900483649,607,0,,0.0,0.0,0.0,0.0,0.0,0.0,0.0,0.0,0.0,0.0,0.0,0.0,0.0,0.006,-0.017,-0.06,0.0,0.0,0.0,0.0,0.0,0.0,0.0,0.0,0.0,-0.553,0.349,12.7,0.0,0.0,0.0,0.0,0.0,0.0,0.0,0.0,0.0
1576083288992542059,608,0,,0.0,0.0,0.0,0.0,0.0,0.0,0.0,0.0,0.0,0.0,0.0,0.0,0.0,0.003,-0.003,-0.09,0.0,0.0,0.0,0.0,0.0,0.0,0.0,0.0,0.0,-0.971,-0.157,11.55,0.0,0.0,0.0,0.0,0.0,0.0,0.0,0.0,0.0
1576083289036003013,609,0,,0.0,0.0,0.0,0.0,0.0,0.0,0.0,0.0,0.0,0.0,0.0,0.0,0.0,0.022,0.012,-0.07,0.0,0.0,0.0,0.0,0.0,0.0,0.0,0.0,0.0,0.135,0.359,9.55,0.0,0.0,0.0,0.0,0.0,0.0,0.0,0.0,0.0
1576083289102956487,610,0,,0.0,0.0,0.0,0.0,0.0,0.0,0.0,0.0,0.0,0.0,0.0,0.0,0.0,0.006,0.011,-0.02,0.0,0.0,0.0,0.0,0.0,0.0,0.0,0.0,0.0,-0.415,-0.26,8.17,0.0,0.0,0.0,0.0,0.0,0.0,0.0,0.0,0.0
1576083289169842971,611,0,,0.0,0.0,0.0,0.0,0.0,0.0,0.0,0.0,0.0,0.0,0.0,0.0,0.0,0.044,0.01,0.04,0.0,0.0,0.0,0.0,0.0,0.0,0.0,0.0,0.0,-0.295,0.156,10.64,0.0,0.0,0.0,0.0,0.0,0.0,0.0,0.0,0.0
1576083289234371643,612,0,,0.0,0.0,0.0,0.0,0.0,0.0,0.0,0.0,0.0,0.0,0.0,0.0,0.0,0.052,-0.027,0.12,0.0,0.0,0.0,0.0,0.0,0.0,0.0,0.0,0.0,-0.73,0.464,12.85,0.0,0.0,0.0,0.0,0.0,0.0,0.0,0.0,0.0
1576083289370631364,613,0,,0.0,0.0,0.0,0.0,0.0,0.0,0.0,0.0,0.0,0.0,0.0,0.0,0.0,-0.005,0.026,0.1,0.0,0.0,0.0,0.0,0.0,0.0,0.0,0.0,0.0,-0.62,-3.242,10.73,0.0,0.0,0.0,0.0,0.0,0.0,0.0,0.0,0.0
1576083289437519685,614,0,,0.0,0.0,0.0,0.0,0.0,0.0,0.0,0.0,0.0,0.0,0.0,0.0,0.0,-0.0,0.002,0.1,0.0,0.0,0.0,0.0,0.0,0.0,0.0,0.0,0.0,-0.411,0.763,8.29,0.0,0.0,0.0,0.0,0.0,0.0,0.0,0.0,0.0
1576083289505410930,615,0,,0.0,0.0,0.0,0.0,0.0,0.0,0.0,0.0,0.0,0.0,0.0,0.0,0.0,-0.018,-0.026,-0.03,0.0,0.0,0.0,0.0,0.0,0.0,0.0,0.0,0.0,0.822,0.26,9.3,0.0,0.0,0.0,0.0,0.0,0.0,0.0,0.0,0.0
1576083289571454747,616,0,,0.0,0.0,0.0,0.0,0.0,0.0,0.0,0.0,0.0,0.0,0.0,0.0,0.0,-0.0,-0.032,-0.09,0.0,0.0,0.0,0.0,0.0,0.0,0.0,0.0,0.0,-0.395,0.409,9.33,0.0,0.0,0.0,0.0,0.0,0.0,0.0,0.0,0.0
1576083289640529872,617,0,,0.0,0.0,0.0,0.0,0.0,0.0,0.0,0.0,0.0,0.0,0.0,0.0,0.0,0.031,0.014,-0.1,0.0,0.0,0.0,0.0,0.0,0.0,0.0,0.0,0.0,0.326,0.05,8.04,0.0,0.0,0.0,0.0,0.0,0.0,0.0,0.0,0.0
1576083289766923235,618,0,,0.0,0.0,0.0,0.0,0.0,0.0,0.0,0.0,0.0,0.0,0.0,0.0,0.0,0.029,0.001,-0.11,0.0,0.0,0.0,0.0,0.0,0.0,0.0,0.0,0.0,-0.321,-0.038,9.26,0.0,0.0,0.0,0.0,0.0,0.0,0.0,0.0,0.0
1576083289832395597,619,0,,0.0,0.0,0.0,0.0,0.0,0.0,0.0,0.0,0.0,0.0,0.0,0.0,0.0,0.01,0.005,-0.1,0.0,0.0,0.0,0.0,0.0,0.0,0.0,0.0,0.0,-0.212,0.169,7.82,0.0,0.0,0.0,0.0,0.0,0.0,0.0,0.0,0.0
1576083289902240427,620,0,,0.0,0.0,0.0,0.0,0.0,0.0,0.0,0.0,0.0,0.0,0.0,0.0,0.0,-0.018,0.014,-0.14,0.0,0.0,0.0,0.0,0.0,0.0,0.0,0.0,0.0,-0.496,-0.033,10.75,0.0,0.0,0.0,0.0,0.0,0.0,0.0,0.0,0.0
1576083289964964276,621,0,,0.0,0.0,0.0,0.0,0.0,0.0,0.0,0.0,0.0,0.0,0.0,0.0,0.0,0.029,-0.002,-0.02,0.0,0.0,0.0,0.0,0.0,0.0,0.0,0.0,0.0,0.08,0.743,8.56,0.0,0.0,0.0,0.0,0.0,0.0,0.0,0.0,0.0
1576083290035416762,622,0,,0.0,0.0,0.0,0.0,0.0,0.0,0.0,0.0,0.0,0.0,0.0,0.0,0.0,0.013,0.008,-0.0,0.0,0.0,0.0,0.0,0.0,0.0,0.0,0.0,0.0,-0.303,0.42,5.95,0.0,0.0,0.0,0.0,0.0,0.0,0.0,0.0,0.0
1576083290102735921,623,0,,0.0,0.0,0.0,0.0,0.0,0.0,0.0,0.0,0.0,0.0,0.0,0.0,0.0,0.058,-0.004,-0.0,0.0,0.0,0.0,0.0,0.0,0.0,0.0,0.0,0.0,-0.086,0.419,8.83,0.0,0.0,0.0,0.0,0.0,0.0,0.0,0.0,0.0
1576083290168597884,624,0,,0.0,0.0,0.0,0.0,0.0,0.0,0.0,0.0,0.0,0.0,0.0,0.0,0.0,0.022,0.009,0.0,0.0,0.0,0.0,0.0,0.0,0.0,0.0,0.0,0.0,-0.17,-0.154,11.72,0.0,0.0,0.0,0.0,0.0,0.0,0.0,0.0,0.0
1576083290235165090,625,0,,0.0,0.0,0.0,0.0,0.0,0.0,0.0,0.0,0.0,0.0,0.0,0.0,0.0,0.025,0.011,0.01,0.0,0.0,0.0,0.0,0.0,0.0,0.0,0.0,0.0,-0.217,0.866,10.73,0.0,0.0,0.0,0.0,0.0,0.0,0.0,0.0,0.0
1576083290303143850,626,0,,0.0,0.0,0.0,0.0,0.0,0.0,0.0,0.0,0.0,0.0,0.0,0.0,0.0,-0.006,0.014,0.01,0.0,0.0,0.0,0.0,0.0,0.0,0.0,0.0,0.0,-0.373,-0.45,8.97,0.0,0.0,0.0,0.0,0.0,0.0,0.0,0.0,0.0
1576083290376222622,627,0,,0.0,0.0,0.0,0.0,0.0,0.0,0.0,0.0,0.0,0.0,0.0,0.0,0.0,-0.023,0.01,-0.0,0.0,0.0,0.0,0.0,0.0,0.0,0.0,0.0,0.0,-0.787,0.262,15.26,0.0,0.0,0.0,0.0,0.0,0.0,0.0,0.0,0.0
1576083290438261627,628,0,,0.0,0.0,0.0,0.0,0.0,0.0,0.0,0.0,0.0,0.0,0.0,0.0,0.0,0.008,-0.001,0.02,0.0,0.0,0.0,0.0,0.0,0.0,0.0,0.0,0.0,-0.033,-0.862,13.27,0.0,0.0,0.0,0.0,0.0,0.0,0.0,0.0,0.0
1576083290503342227,629,0,,0.0,0.0,0.0,0.0,0.0,0.0,0.0,0.0,0.0,0.0,0.0,0.0,0.0,0.04,-0.014,0.01,0.0,0.0,0.0,0.0,0.0,0.0,0.0,0.0,0.0,-0.712,1.185,9.73,0.0,0.0,0.0,0.0,0.0,0.0,0.0,0.0,0.0
1576083290572735269,630,0,,0.0,0.0,0.0,0.0,0.0,0.0,0.0,0.0,0.0,0.0,0.0,0.0,0.0,0.031,-0.014,-0.02,0.0,0.0,0.0,0.0,0.0,0.0,0.0,0.0,0.0,0.108,0.051,10.54,0.0,0.0,0.0,0.0,0.0,0.0,0.0,0.0,0.0
1576083290720338740,631,0,,0.0,0.0,0.0,0.0,0.0,0.0,0.0,0.0,0.0,0.0,0.0,0.0,0.0,0.022,0.002,0.01,0.0,0.0,0.0,0.0,0.0,0.0,0.0,0.0,0.0,-1.245,-0.224,13.8,0.0,0.0,0.0,0.0,0.0,0.0,0.0,0.0,0.0
1576083290771764886,632,0,,0.0,0.0,0.0,0.0,0.0,0.0,0.0,0.0,0.0,0.0,0.0,0.0,0.0,0.023,0.015,0.06,0.0,0.0,0.0,0.0,0.0,0.0,0.0,0.0,0.0,0.248,1.453,14.23,0.0,0.0,0.0,0.0,0.0,0.0,0.0,0.0,0.0
1576083290897850400,633,0,,0.0,0.0,0.0,0.0,0.0,0.0,0.0,0.0,0.0,0.0,0.0,0.0,0.0,0.021,0.022,-0.0,0.0,0.0,0.0,0.0,0.0,0.0,0.0,0.0,0.0,0.204,1.912,14.69,0.0,0.0,0.0,0.0,0.0,0.0,0.0,0.0,0.0
1576083290963636313,634,0,,0.0,0.0,0.0,0.0,0.0,0.0,0.0,0.0,0.0,0.0,0.0,0.0,0.0,0.023,-0.011,0.07,0.0,0.0,0.0,0.0,0.0,0.0,0.0,0.0,0.0,-0.365,0.001,11.54,0.0,0.0,0.0,0.0,0.0,0.0,0.0,0.0,0.0
1576083291036475865,635,0,,0.0,0.0,0.0,0.0,0.0,0.0,0.0,0.0,0.0,0.0,0.0,0.0,0.0,0.004,0.018,0.04,0.0,0.0,0.0,0.0,0.0,0.0,0.0,0.0,0.0,-0.378,1.3,13.85,0.0,0.0,0.0,0.0,0.0,0.0,0.0,0.0,0.0
