%time,field.header.seq,field.header.stamp,field.header.frame_id,field.orientation.x,field.orientation.y,field.orientation.z,field.orientation.w,field.orientation_covariance0,field.orientation_covariance1,field.orientation_covariance2,field.orientation_covariance3,field.orientation_covariance4,field.orientation_covariance5,field.orientation_covariance6,field.orientation_covariance7,field.orientation_covariance8,field.angular_velocity.x,field.angular_velocity.y,field.angular_velocity.z,field.angular_velocity_covariance0,field.angular_velocity_covariance1,field.angular_velocity_covariance2,field.angular_velocity_covariance3,field.angular_velocity_covariance4,field.angular_velocity_covariance5,field.angular_velocity_covariance6,field.angular_velocity_covariance7,field.angular_velocity_covariance8,field.linear_acceleration.x,field.linear_acceleration.y,field.linear_acceleration.z,field.linear_acceleration_covariance0,field.linear_acceleration_covariance1,field.linear_acceleration_covariance2,field.linear_acceleration_covariance3,field.linear_acceleration_covariance4,field.linear_acceleration_covariance5,field.linear_acceleration_covariance6,field.linear_acceleration_covariance7,field.linear_acceleration_covariance8
1576083024131343681,189,0,,0.0,0.0,0.0,0.0,0.0,0.0,0.0,0.0,0.0,0.0,0.0,0.0,0.0,0.021,-0.259,-0.2,0.0,0.0,0.0,0.0,0.0,0.0,0.0,0.0,0.0,-0.331,6.27,5.19,0.0,0.0,0.0,0.0,0.0,0.0,0.0,0.0,0.0
1576083024206886773,190,0,,0.0,0.0,0.0,0.0,0.0,0.0,0.0,0.0,0.0,0.0,0.0,0.0,0.0,-0.188,-0.093,0.07,0.0,0.0,0.0,0.0,0.0,0.0,0.0,0.0,0.0,-0.197,7.552,7.65,0.0,0.0,0.0,0.0,0.0,0.0,0.0,0.0,0.0
1576083024248956972,191,0,,0.0,0.0,0.0,0.0,0.0,0.0,0.0,0.0,0.0,0.0,0.0,0.0,0.0,0.169,0.182,0.03,0.0,0.0,0.0,0.0,0.0,0.0,0.0,0.0,0.0,-1.104,7.017,6.41,0.0,0.0,0.0,0.0,0.0,0.0,0.0,0.0,0.0
1576083024326980134,192,0,,0.0,0.0,0.0,0.0,0.0,0.0,0.0,0.0,0.0,0.0,0.0,0.0,0.0,-0.224,-0.25,0.02,0.0,0.0,0.0,0.0,0.0,0.0,0.0,0.0,0.0,-0.067,6.049,7.7,0.0,0.0,0.0,0.0,0.0,0.0,0.0,0.0,0.0
1576083024424708384,193,0,,0.0,0.0,0.0,0.0,0.0,0.0,0.0,0.0,0.0,0.0,0.0,0.0,0.0,-0.486,0.214,0.04,0.0,0.0,0.0,0.0,0.0,0.0,0.0,0.0,0.0,-0.553,6.2,4.13,0.0,0.0,0.0,0.0,0.0,0.0,0.0,0.0,0.0
1576083024451785733,194,0,,0.0,0.0,0.0,0.0,0.0,0.0,0.0,0.0,0.0,0.0,0.0,0.0,0.0,-0.694,-0.246,0.05,0.0,0.0,0.0,0.0,0.0,0.0,0.0,0.0,0.0,0.338,5.625,7.16,0.0,0.0,0.0,0.0,0.0,0.0,0.0,0.0,0.0
1576083024534328337,195,0,,0.0,0.0,0.0,0.0,0.0,0.0,0.0,0.0,0.0,0.0,0.0,0.0,0.0,-1.215,-0.101,0.26,0.0,0.0,0.0,0.0,0.0,0.0,0.0,0.0,0.0,-0.348,5.735,9.09,0.0,0.0,0.0,0.0,0.0,0.0,0.0,0.0,0.0
1576083024585446803,196,0,,0.0,0.0,0.0,0.0,0.0,0.0,0.0,0.0,0.0,0.0,0.0,0.0,0.0,-0.22,0.051,-0.05,0.0,0.0,0.0,0.0,0.0,0.0,0.0,0.0,0.0,0.675,6.262,11.4,0.0,0.0,0.0,0.0,0.0,0.0,0.0,0.0,0.0
1576083024652501769,197,0,,0.0,0.0,0.0,0.0,0.0,0.0,0.0,0.0,0.0,0.0,0.0,0.0,0.0,-0.071,0.473,-0.25,0.0,0.0,0.0,0.0,0.0,0.0,0.0,0.0,0.0,1.245,6.936,6.78,0.0,0.0,0.0,0.0,0.0,0.0,0.0,0.0,0.0
1576083024735905979,198,0,,0.0,0.0,0.0,0.0,0.0,0.0,0.0,0.0,0.0,0.0,0.0,0.0,0.0,-1.153,-0.701,-0.42,0.0,0.0,0.0,0.0,0.0,0.0,0.0,0.0,0.0,0.733,4.117,6.7,0.0,0.0,0.0,0.0,0.0,0.0,0.0,0.0,0.0
1576083024786662686,199,0,,0.0,0.0,0.0,0.0,0.0,0.0,0.0,0.0,0.0,0.0,0.0,0.0,0.0,-0.508,-1.625,0.02,0.0,0.0,0.0,0.0,0.0,0.0,0.0,0.0,0.0,2.194,4.472,6.89,0.0,0.0,0.0,0.0,0.0,0.0,0.0,0.0,0.0
1576083024856994229,200,0,,0.0,0.0,0.0,0.0,0.0,0.0,0.0,0.0,0.0,0.0,0.0,0.0,0.0,-0.232,-1.51,0.36,0.0,0.0,0.0,0.0,0.0,0.0,0.0,0.0,0.0,1.085,4.05,8.71,0.0,0.0,0.0,0.0,0.0,0.0,0.0,0.0,0.0
1576083024944864050,201,0,,0.0,0.0,0.0,0.0,0.0,0.0,0.0,0.0,0.0,0.0,0.0,0.0,0.0,-0.643,-0.823,-0.12,0.0,0.0,0.0,0.0,0.0,0.0,0.0,0.0,0.0,2.235,4.327,10.05,0.0,0.0,0.0,0.0,0.0,0.0,0.0,0.0,0.0
1576083025045593281,202,0,,0.0,0.0,0.0,0.0,0.0,0.0,0.0,0.0,0.0,0.0,0.0,0.0,0.0,1.002,-0.605,-0.18,0.0,0.0,0.0,0.0,0.0,0.0,0.0,0.0,0.0,1.974,4.038,10.54,0.0,0.0,0.0,0.0,0.0,0.0,0.0,0.0,0.0
1576083025142487322,203,0,,0.0,0.0,0.0,0.0,0.0,0.0,0.0,0.0,0.0,0.0,0.0,0.0,0.0,-0.43,0.134,-0.74,0.0,0.0,0.0,0.0,0.0,0.0,0.0,0.0,0.0,1.165,4.984,8.11,0.0,0.0,0.0,0.0,0.0,0.0,0.0,0.0,0.0
1576083025181867557,204,0,,0.0,0.0,0.0,0.0,0.0,0.0,0.0,0.0,0.0,0.0,0.0,0.0,0.0,0.647,0.173,-0.21,0.0,0.0,0.0,0.0,0.0,0.0,0.0,0.0,0.0,1.876,3.805,8.56,0.0,0.0,0.0,0.0,0.0,0.0,0.0,0.0,0.0
1576083025249489211,205,0,,0.0,0.0,0.0,0.0,0.0,0.0,0.0,0.0,0.0,0.0,0.0,0.0,0.0,-0.157,0.129,-0.13,0.0,0.0,0.0,0.0,0.0,0.0,0.0,0.0,0.0,1.3,3.849,8.01,0.0,0.0,0.0,0.0,0.0,0.0,0.0,0.0,0.0
1576083025564708672,206,0,,0.0,0.0,0.0,0.0,0.0,0.0,0.0,0.0,0.0,0.0,0.0,0.0,0.0,-0.255,0.393,0.21,0.0,0.0,0.0,0.0,0.0,0.0,0.0,0.0,0.0,2.94,5.344,10.75,0.0,0.0,0.0,0.0,0.0,0.0,0.0,0.0,0.0
1576083025565663235,207,0,,0.0,0.0,0.0,0.0,0.0,0.0,0.0,0.0,0.0,0.0,0.0,0.0,0.0,-0.025,0.743,-0.06,0.0,0.0,0.0,0.0,0.0,0.0,0.0,0.0,0.0,2.256,4.792,8.63,0.0,0.0,0.0,0.0,0.0,0.0,0.0,0.0,0.0
1576083025565710907,208,0,,0.0,0.0,0.0,0.0,0.0,0.0,0.0,0.0,0.0,0.0,0.0,0.0,0.0,1.038,1.372,-0.35,0.0,0.0,0.0,0.0,0.0,0.0,0.0,0.0,0.0,0.659,4.591,6.11,0.0,0.0,0.0,0.0,0.0,0.0,0.0,0.0,0.0
1576083025565923303,209,0,,0.0,0.0,0.0,0.0,0.0,0.0,0.0,0.0,0.0,0.0,0.0,0.0,0.0,0.765,0.447,0.05,0.0,0.0,0.0,0.0,0.0,0.0,0.0,0.0,0.0,1.137,4.641,7.32,0.0,0.0,0.0,0.0,0.0,0.0,0.0,0.0,0.0
1576083025586338747,210,0,,0.0,0.0,0.0,0.0,0.0,0.0,0.0,0.0,0.0,0.0,0.0,0.0,0.0,0.225,-0.118,-0.15,0.0,0.0,0.0,0.0,0.0,0.0,0.0,0.0,0.0,0.461,5.729,6.86,0.0,0.0,0.0,0.0,0.0,0.0,0.0,0.0,0.0
1576083025660894942,211,0,,0.0,0.0,0.0,0.0,0.0,0.0,0.0,0.0,0.0,0.0,0.0,0.0,0.0,0.041,0.255,-0.46,0.0,0.0,0.0,0.0,0.0,0.0,0.0,0.0,0.0,-0.505,5.254,9.84,0.0,0.0,0.0,0.0,0.0,0.0,0.0,0.0,0.0
1576083025757778882,212,0,,0.0,0.0,0.0,0.0,0.0,0.0,0.0,0.0,0.0,0.0,0.0,0.0,0.0,-0.149,-0.23,-0.38,0.0,0.0,0.0,0.0,0.0,0.0,0.0,0.0,0.0,0.379,4.358,7.17,0.0,0.0,0.0,0.0,0.0,0.0,0.0,0.0,0.0
1576083025788877087,213,0,,0.0,0.0,0.0,0.0,0.0,0.0,0.0,0.0,0.0,0.0,0.0,0.0,0.0,0.774,0.738,0.64,0.0,0.0,0.0,0.0,0.0,0.0,0.0,0.0,0.0,1.355,8.534,7.45,0.0,0.0,0.0,0.0,0.0,0.0,0.0,0.0,0.0
1576083025865912490,214,0,,0.0,0.0,0.0,0.0,0.0,0.0,0.0,0.0,0.0,0.0,0.0,0.0,0.0,-0.224,0.16,0.0,0.0,0.0,0.0,0.0,0.0,0.0,0.0,0.0,0.0,0.149,5.029,6.47,0.0,0.0,0.0,0.0,0.0,0.0,0.0,0.0,0.0
1576083025989788375,215,0,,0.0,0.0,0.0,0.0,0.0,0.0,0.0,0.0,0.0,0.0,0.0,0.0,0.0,0.304,-0.039,0.08,0.0,0.0,0.0,0.0,0.0,0.0,0.0,0.0,0.0,-0.712,5.92,9.27,0.0,0.0,0.0,0.0,0.0,0.0,0.0,0.0,0.0
1576083026059007483,216,0,,0.0,0.0,0.0,0.0,0.0,0.0,0.0,0.0,0.0,0.0,0.0,0.0,0.0,0.744,-0.036,-0.08,0.0,0.0,0.0,0.0,0.0,0.0,0.0,0.0,0.0,0.558,7.898,6.57,0.0,0.0,0.0,0.0,0.0,0.0,0.0,0.0,0.0
1576083026191620723,217,0,,0.0,0.0,0.0,0.0,0.0,0.0,0.0,0.0,0.0,0.0,0.0,0.0,0.0,0.229,-0.33,-0.37,0.0,0.0,0.0,0.0,0.0,0.0,0.0,0.0,0.0,-0.877,7.841,10.05,0.0,0.0,0.0,0.0,0.0,0.0,0.0,0.0,0.0
1576083026316842493,218,0,,0.0,0.0,0.0,0.0,0.0,0.0,0.0,0.0,0.0,0.0,0.0,0.0,0.0,0.26,0.327,0.41,0.0,0.0,0.0,0.0,0.0,0.0,0.0,0.0,0.0,1.791,7.641,7.95,0.0,0.0,0.0,0.0,0.0,0.0,0.0,0.0,0.0
1576083026384893358,219,0,,0.0,0.0,0.0,0.0,0.0,0.0,0.0,0.0,0.0,0.0,0.0,0.0,0.0,0.269,0.112,0.1,0.0,0.0,0.0,0.0,0.0,0.0,0.0,0.0,0.0,-1.104,6.367,5.38,0.0,0.0,0.0,0.0,0.0,0.0,0.0,0.0,0.0
1576083026449812037,220,0,,0.0,0.0,0.0,0.0,0.0,0.0,0.0,0.0,0.0,0.0,0.0,0.0,0.0,0.487,-0.103,-0.2,0.0,0.0,0.0,0.0,0.0,0.0,0.0,0.0,0.0,-0.126,6.654,6.86,0.0,0.0,0.0,0.0,0.0,0.0,0.0,0.0,0.0
1576083026514635025,221,0,,0.0,0.0,0.0,0.0,0.0,0.0,0.0,0.0,0.0,0.0,0.0,0.0,0.0,-0.137,-0.033,0.07,0.0,0.0,0.0,0.0,0.0,0.0,0.0,0.0,0.0,-0.134,6.684,6.68,0.0,0.0,0.0,0.0,0.0,0.0,0.0,0.0,0.0
1576083026588011686,222,0,,0.0,0.0,0.0,0.0,0.0,0.0,0.0,0.0,0.0,0.0,0.0,0.0,0.0,-0.02,0.019,0.0,0.0,0.0,0.0,0.0,0.0,0.0,0.0,0.0,0.0,-0.889,5.941,7.02,0.0,0.0,0.0,0.0,0.0,0.0,0.0,0.0,0.0
1576083026649370225,223,0,,0.0,0.0,0.0,0.0,0.0,0.0,0.0,0.0,0.0,0.0,0.0,0.0,0.0,-0.123,0.099,0.09,0.0,0.0,0.0,0.0,0.0,0.0,0.0,0.0,0.0,0.858,6.498,8.55,0.0,0.0,0.0,0.0,0.0,0.0,0.0,0.0,0.0
1576083026793589705,224,0,,0.0,0.0,0.0,0.0,0.0,0.0,0.0,0.0,0.0,0.0,0.0,0.0,0.0,-0.069,-0.116,-0.11,0.0,0.0,0.0,0.0,0.0,0.0,0.0,0.0,0.0,-1.54,8.59,7.2,0.0,0.0,0.0,0.0,0.0,0.0,0.0,0.0,0.0
1576083026794067965,225,0,,0.0,0.0,0.0,0.0,0.0,0.0,0.0,0.0,0.0,0.0,0.0,0.0,0.0,0.942,-0.134,-0.13,0.0,0.0,0.0,0.0,0.0,0.0,0.0,0.0,0.0,0.207,7.275,5.77,0.0,0.0,0.0,0.0,0.0,0.0,0.0,0.0,0.0
1576083026852601325,226,0,,0.0,0.0,0.0,0.0,0.0,0.0,0.0,0.0,0.0,0.0,0.0,0.0,0.0,0.401,0.007,0.01,0.0,0.0,0.0,0.0,0.0,0.0,0.0,0.0,0.0,-0.032,5.586,5.93,0.0,0.0,0.0,0.0,0.0,0.0,0.0,0.0,0.0
1576083026949258658,227,0,,0.0,0.0,0.0,0.0,0.0,0.0,0.0,0.0,0.0,0.0,0.0,0.0,0.0,0.222,0.055,0.03,0.0,0.0,0.0,0.0,0.0,0.0,0.0,0.0,0.0,0.014,5.978,5.78,0.0,0.0,0.0,0.0,0.0,0.0,0.0,0.0,0.0
1576083026988782210,228,0,,0.0,0.0,0.0,0.0,0.0,0.0,0.0,0.0,0.0,0.0,0.0,0.0,0.0,0.223,0.051,0.03,0.0,0.0,0.0,0.0,0.0,0.0,0.0,0.0,0.0,0.375,3.02,4.91,0.0,0.0,0.0,0.0,0.0,0.0,0.0,0.0,0.0
1576083027058503017,229,0,,0.0,0.0,0.0,0.0,0.0,0.0,0.0,0.0,0.0,0.0,0.0,0.0,0.0,0.309,0.249,0.2,0.0,0.0,0.0,0.0,0.0,0.0,0.0,0.0,0.0,-1.317,7.712,6.23,0.0,0.0,0.0,0.0,0.0,0.0,0.0,0.0,0.0
1576083027146225644,230,0,,0.0,0.0,0.0,0.0,0.0,0.0,0.0,0.0,0.0,0.0,0.0,0.0,0.0,0.194,0.059,0.04,0.0,0.0,0.0,0.0,0.0,0.0,0.0,0.0,0.0,0.07,6.719,6.77,0.0,0.0,0.0,0.0,0.0,0.0,0.0,0.0,0.0
1576083027189895645,231,0,,0.0,0.0,0.0,0.0,0.0,0.0,0.0,0.0,0.0,0.0,0.0,0.0,0.0,0.067,0.083,0.08,0.0,0.0,0.0,0.0,0.0,0.0,0.0,0.0,0.0,-1.076,7.64,4.88,0.0,0.0,0.0,0.0,0.0,0.0,0.0,0.0,0.0
1576083027258989452,232,0,,0.0,0.0,0.0,0.0,0.0,0.0,0.0,0.0,0.0,0.0,0.0,0.0,0.0,-0.258,-0.006,-0.02,0.0,0.0,0.0,0.0,0.0,0.0,0.0,0.0,0.0,-0.563,7.483,7.56,0.0,0.0,0.0,0.0,0.0,0.0,0.0,0.0,0.0
1576083027390588850,233,0,,0.0,0.0,0.0,0.0,0.0,0.0,0.0,0.0,0.0,0.0,0.0,0.0,0.0,-0.028,-0.128,-0.03,0.0,0.0,0.0,0.0,0.0,0.0,0.0,0.0,0.0,-0.011,8.089,5.67,0.0,0.0,0.0,0.0,0.0,0.0,0.0,0.0,0.0
1576083027517062760,234,0,,0.0,0.0,0.0,0.0,0.0,0.0,0.0,0.0,0.0,0.0,0.0,0.0,0.0,0.056,-0.183,-0.15,0.0,0.0,0.0,0.0,0.0,0.0,0.0,0.0,0.0,-0.956,9.625,6.85,0.0,0.0,0.0,0.0,0.0,0.0,0.0,0.0,0.0
1576083027587720691,235,0,,0.0,0.0,0.0,0.0,0.0,0.0,0.0,0.0,0.0,0.0,0.0,0.0,0.0,-0.092,-0.174,-0.09,0.0,0.0,0.0,0.0,0.0,0.0,0.0,0.0,0.0,0.621,7.463,4.5,0.0,0.0,0.0,0.0,0.0,0.0,0.0,0.0,0.0
1576083027648465986,236,0,,0.0,0.0,0.0,0.0,0.0,0.0,0.0,0.0,0.0,0.0,0.0,0.0,0.0,-0.071,-0.135,-0.09,0.0,0.0,0.0,0.0,0.0,0.0,0.0,0.0,0.0,-0.127,9.148,6.95,0.0,0.0,0.0,0.0,0.0,0.0,0.0,0.0,0.0
1576083027714906827,237,0,,0.0,0.0,0.0,0.0,0.0,0.0,0.0,0.0,0.0,0.0,0.0,0.0,0.0,-0.57,0.002,0.02,0.0,0.0,0.0,0.0,0.0,0.0,0.0,0.0,0.0,-0.138,8.455,6.23,0.0,0.0,0.0,0.0,0.0,0.0,0.0,0.0,0.0
1576083027784394771,238,0,,0.0,0.0,0.0,0.0,0.0,0.0,0.0,0.0,0.0,0.0,0.0,0.0,0.0,-0.09,0.01,-0.04,0.0,0.0,0.0,0.0,0.0,0.0,0.0,0.0,0.0,-0.421,6.714,6.18,0.0,0.0,0.0,0.0,0.0,0.0,0.0,0.0,0.0
1576083027866688470,239,0,,0.0,0.0,0.0,0.0,0.0,0.0,0.0,0.0,0.0,0.0,0.0,0.0,0.0,0.042,0.049,0.02,0.0,0.0,0.0,0.0,0.0,0.0,0.0,0.0,0.0,-0.44,8.794,5.09,0.0,0.0,0.0,0.0,0.0,0.0,0.0,0.0,0.0
1576083027943376589,240,0,,0.0,0.0,0.0,0.0,0.0,0.0,0.0,0.0,0.0,0.0,0.0,0.0,0.0,-0.305,0.047,0.04,0.0,0.0,0.0,0.0,0.0,0.0,0.0,0.0,0.0,-0.036,7.573,7.05,0.0,0.0,0.0,0.0,0.0,0.0,0.0,0.0,0.0
1576083027987045346,241,0,,0.0,0.0,0.0,0.0,0.0,0.0,0.0,0.0,0.0,0.0,0.0,0.0,0.0,-0.224,0.05,0.05,0.0,0.0,0.0,0.0,0.0,0.0,0.0,0.0,0.0,-0.506,5.435,6.67,0.0,0.0,0.0,0.0,0.0,0.0,0.0,0.0,0.0
1576083028055967539,242,0,,0.0,0.0,0.0,0.0,0.0,0.0,0.0,0.0,0.0,0.0,0.0,0.0,0.0,-0.083,0.049,-0.01,0.0,0.0,0.0,0.0,0.0,0.0,0.0,0.0,0.0,0.02,7.967,7.04,0.0,0.0,0.0,0.0,0.0,0.0,0.0,0.0,0.0
1576083028141372820,243,0,,0.0,0.0,0.0,0.0,0.0,0.0,0.0,0.0,0.0,0.0,0.0,0.0,0.0,-0.047,0.035,0.09,0.0,0.0,0.0,0.0,0.0,0.0,0.0,0.0,0.0,-0.526,8.528,5.26,0.0,0.0,0.0,0.0,0.0,0.0,0.0,0.0,0.0
1576083028185319088,244,0,,0.0,0.0,0.0,0.0,0.0,0.0,0.0,0.0,0.0,0.0,0.0,0.0,0.0,0.148,0.069,0.0,0.0,0.0,0.0,0.0,0.0,0.0,0.0,0.0,0.0,-0.564,7.066,6.93,0.0,0.0,0.0,0.0,0.0,0.0,0.0,0.0,0.0
1576083028255895337,245,0,,0.0,0.0,0.0,0.0,0.0,0.0,0.0,0.0,0.0,0.0,0.0,0.0,0.0,0.375,0.022,-0.03,0.0,0.0,0.0,0.0,0.0,0.0,0.0,0.0,0.0,0.011,10.981,5.88,0.0,0.0,0.0,0.0,0.0,0.0,0.0,0.0,0.0
1576083028388933911,246,0,,0.0,0.0,0.0,0.0,0.0,0.0,0.0,0.0,0.0,0.0,0.0,0.0,0.0,0.157,-0.04,-0.03,0.0,0.0,0.0,0.0,0.0,0.0,0.0,0.0,0.0,-0.288,8.529,5.81,0.0,0.0,0.0,0.0,0.0,0.0,0.0,0.0,0.0
1576083028457230877,247,0,,0.0,0.0,0.0,0.0,0.0,0.0,0.0,0.0,0.0,0.0,0.0,0.0,0.0,-0.071,-0.077,-0.04,0.0,0.0,0.0,0.0,0.0,0.0,0.0,0.0,0.0,-0.385,7.719,5.84,0.0,0.0,0.0,0.0,0.0,0.0,0.0,0.0,0.0
1576083028540319823,248,0,,0.0,0.0,0.0,0.0,0.0,0.0,0.0,0.0,0.0,0.0,0.0,0.0,0.0,-0.074,-0.119,-0.05,0.0,0.0,0.0,0.0,0.0,0.0,0.0,0.0,0.0,-1.052,10.803,5.83,0.0,0.0,0.0,0.0,0.0,0.0,0.0,0.0,0.0
1576083028593572738,249,0,,0.0,0.0,0.0,0.0,0.0,0.0,0.0,0.0,0.0,0.0,0.0,0.0,0.0,-0.177,-0.116,0.01,0.0,0.0,0.0,0.0,0.0,0.0,0.0,0.0,0.0,-0.366,7.958,7.27,0.0,0.0,0.0,0.0,0.0,0.0,0.0,0.0,0.0
1576083028659276270,250,0,,0.0,0.0,0.0,0.0,0.0,0.0,0.0,0.0,0.0,0.0,0.0,0.0,0.0,0.121,-0.093,-0.09,0.0,0.0,0.0,0.0,0.0,0.0,0.0,0.0,0.0,-0.547,4.325,7.09,0.0,0.0,0.0,0.0,0.0,0.0,0.0,0.0,0.0
1576083028785037932,251,0,,0.0,0.0,0.0,0.0,0.0,0.0,0.0,0.0,0.0,0.0,0.0,0.0,0.0,0.002,-0.131,0.0,0.0,0.0,0.0,0.0,0.0,0.0,0.0,0.0,0.0,-0.935,5.826,6.38,0.0,0.0,0.0,0.0,0.0,0.0,0.0,0.0,0.0
1576083028849867717,252,0,,0.0,0.0,0.0,0.0,0.0,0.0,0.0,0.0,0.0,0.0,0.0,0.0,0.0,0.003,-0.142,-0.06,0.0,0.0,0.0,0.0,0.0,0.0,0.0,0.0,0.0,0.722,7.855,5.71,0.0,0.0,0.0,0.0,0.0,0.0,0.0,0.0,0.0
1576083028941547001,253,0,,0.0,0.0,0.0,0.0,0.0,0.0,0.0,0.0,0.0,0.0,0.0,0.0,0.0,-0.103,0.029,0.06,0.0,0.0,0.0,0.0,0.0,0.0,0.0,0.0,0.0,-0.132,7.047,6.68,0.0,0.0,0.0,0.0,0.0,0.0,0.0,0.0,0.0
1576083028986562113,254,0,,0.0,0.0,0.0,0.0,0.0,0.0,0.0,0.0,0.0,0.0,0.0,0.0,0.0,-0.092,-0.173,-0.21,0.0,0.0,0.0,0.0,0.0,0.0,0.0,0.0,0.0,-0.397,7.032,5.64,0.0,0.0,0.0,0.0,0.0,0.0,0.0,0.0,0.0
1576083029050160952,255,0,,0.0,0.0,0.0,0.0,0.0,0.0,0.0,0.0,0.0,0.0,0.0,0.0,0.0,-0.104,-0.104,-0.05,0.0,0.0,0.0,0.0,0.0,0.0,0.0,0.0,0.0,-0.04,6.889,7.58,0.0,0.0,0.0,0.0,0.0,0.0,0.0,0.0,0.0
1576083029251294393,256,0,,0.0,0.0,0.0,0.0,0.0,0.0,0.0,0.0,0.0,0.0,0.0,0.0,0.0,-0.333,0.079,0.2,0.0,0.0,0.0,0.0,0.0,0.0,0.0,0.0,0.0,0.285,6.441,4.76,0.0,0.0,0.0,0.0,0.0,0.0,0.0,0.0,0.0
1576083029251922923,257,0,,0.0,0.0,0.0,0.0,0.0,0.0,0.0,0.0,0.0,0.0,0.0,0.0,0.0,-0.258,0.178,-0.03,0.0,0.0,0.0,0.0,0.0,0.0,0.0,0.0,0.0,-0.03,6.256,7.61,0.0,0.0,0.0,0.0,0.0,0.0,0.0,0.0,0.0
1576083029252506481,258,0,,0.0,0.0,0.0,0.0,0.0,0.0,0.0,0.0,0.0,0.0,0.0,0.0,0.0,-1.013,-0.069,0.04,0.0,0.0,0.0,0.0,0.0,0.0,0.0,0.0,0.0,-0.017,6.848,8.43,0.0,0.0,0.0,0.0,0.0,0.0,0.0,0.0,0.0
1576083029343700837,259,0,,0.0,0.0,0.0,0.0,0.0,0.0,0.0,0.0,0.0,0.0,0.0,0.0,0.0,-0.436,-0.027,-0.08,0.0,0.0,0.0,0.0,0.0,0.0,0.0,0.0,0.0,-0.267,5.167,5.63,0.0,0.0,0.0,0.0,0.0,0.0,0.0,0.0,0.0
1576083029386528910,260,0,,0.0,0.0,0.0,0.0,0.0,0.0,0.0,0.0,0.0,0.0,0.0,0.0,0.0,-0.296,0.075,0.28,0.0,0.0,0.0,0.0,0.0,0.0,0.0,0.0,0.0,0.017,6.254,8.22,0.0,0.0,0.0,0.0,0.0,0.0,0.0,0.0,0.0
1576083029468810242,261,0,,0.0,0.0,0.0,0.0,0.0,0.0,0.0,0.0,0.0,0.0,0.0,0.0,0.0,0.225,-0.022,-0.08,0.0,0.0,0.0,0.0,0.0,0.0,0.0,0.0,0.0,-0.613,5.547,6.23,0.0,0.0,0.0,0.0,0.0,0.0,0.0,0.0,0.0
1576083029539718179,262,0,,0.0,0.0,0.0,0.0,0.0,0.0,0.0,0.0,0.0,0.0,0.0,0.0,0.0,-0.186,0.116,0.0,0.0,0.0,0.0,0.0,0.0,0.0,0.0,0.0,0.0,-0.431,6.922,7.66,0.0,0.0,0.0,0.0,0.0,0.0,0.0,0.0,0.0
1576083029588548973,263,0,,0.0,0.0,0.0,0.0,0.0,0.0,0.0,0.0,0.0,0.0,0.0,0.0,0.0,-0.212,-0.027,0.07,0.0,0.0,0.0,0.0,0.0,0.0,0.0,0.0,0.0,-0.825,4.905,7.79,0.0,0.0,0.0,0.0,0.0,0.0,0.0,0.0,0.0
1576083029666871970,264,0,,0.0,0.0,0.0,0.0,0.0,0.0,0.0,0.0,0.0,0.0,0.0,0.0,0.0,0.15,0.029,-0.0,0.0,0.0,0.0,0.0,0.0,0.0,0.0,0.0,0.0,0.207,5.544,7.04,0.0,0.0,0.0,0.0,0.0,0.0,0.0,0.0,0.0
1576083029741703248,265,0,,0.0,0.0,0.0,0.0,0.0,0.0,0.0,0.0,0.0,0.0,0.0,0.0,0.0,-0.102,0.012,-0.03,0.0,0.0,0.0,0.0,0.0,0.0,0.0,0.0,0.0,-0.382,6.659,7.55,0.0,0.0,0.0,0.0,0.0,0.0,0.0,0.0,0.0
1576083029792584366,266,0,,0.0,0.0,0.0,0.0,0.0,0.0,0.0,0.0,0.0,0.0,0.0,0.0,0.0,-0.311,-0.103,-0.08,0.0,0.0,0.0,0.0,0.0,0.0,0.0,0.0,0.0,-0.673,5.696,6.33,0.0,0.0,0.0,0.0,0.0,0.0,0.0,0.0,0.0
1576083029858223153,267,0,,0.0,0.0,0.0,0.0,0.0,0.0,0.0,0.0,0.0,0.0,0.0,0.0,0.0,-0.721,0.025,0.24,0.0,0.0,0.0,0.0,0.0,0.0,0.0,0.0,0.0,0.97,6.692,9.48,0.0,0.0,0.0,0.0,0.0,0.0,0.0,0.0,0.0
1576083029984762719,268,0,,0.0,0.0,0.0,0.0,0.0,0.0,0.0,0.0,0.0,0.0,0.0,0.0,0.0,-0.128,-0.242,-0.42,0.0,0.0,0.0,0.0,0.0,0.0,0.0,0.0,0.0,-1.614,4.754,8.31,0.0,0.0,0.0,0.0,0.0,0.0,0.0,0.0,0.0
1576083030052233401,269,0,,0.0,0.0,0.0,0.0,0.0,0.0,0.0,0.0,0.0,0.0,0.0,0.0,0.0,-0.828,-0.095,0.15,0.0,0.0,0.0,0.0,0.0,0.0,0.0,0.0,0.0,0.837,6.0,10.75,0.0,0.0,0.0,0.0,0.0,0.0,0.0,0.0,0.0
1576083030136613589,270,0,,0.0,0.0,0.0,0.0,0.0,0.0,0.0,0.0,0.0,0.0,0.0,0.0,0.0,-0.545,0.054,0.22,0.0,0.0,0.0,0.0,0.0,0.0,0.0,0.0,0.0,0.538,4.523,7.4,0.0,0.0,0.0,0.0,0.0,0.0,0.0,0.0,0.0
1576083030184390761,271,0,,0.0,0.0,0.0,0.0,0.0,0.0,0.0,0.0,0.0,0.0,0.0,0.0,0.0,0.144,-0.07,-0.05,0.0,0.0,0.0,0.0,0.0,0.0,0.0,0.0,0.0,-0.467,4.897,7.38,0.0,0.0,0.0,0.0,0.0,0.0,0.0,0.0,0.0
1576083030250774484,272,0,,0.0,0.0,0.0,0.0,0.0,0.0,0.0,0.0,0.0,0.0,0.0,0.0,0.0,-0.364,-0.053,-0.19,0.0,0.0,0.0,0.0,0.0,0.0,0.0,0.0,0.0,0.612,4.397,7.52,0.0,0.0,0.0,0.0,0.0,0.0,0.0,0.0,0.0
1576083030338690329,273,0,,0.0,0.0,0.0,0.0,0.0,0.0,0.0,0.0,0.0,0.0,0.0,0.0,0.0,-0.363,0.114,0.1,0.0,0.0,0.0,0.0,0.0,0.0,0.0,0.0,0.0,-0.851,3.082,8.7,0.0,0.0,0.0,0.0,0.0,0.0,0.0,0.0,0.0
1576083030386752319,274,0,,0.0,0.0,0.0,0.0,0.0,0.0,0.0,0.0,0.0,0.0,0.0,0.0,0.0,-0.704,-0.001,-0.22,0.0,0.0,0.0,0.0,0.0,0.0,0.0,0.0,0.0,0.935,3.689,8.67,0.0,0.0,0.0,0.0,0.0,0.0,0.0,0.0,0.0
1576083030456839407,275,0,,0.0,0.0,0.0,0.0,0.0,0.0,0.0,0.0,0.0,0.0,0.0,0.0,0.0,-0.06,0.074,0.17,0.0,0.0,0.0,0.0,0.0,0.0,0.0,0.0,0.0,-0.372,4.003,9.57,0.0,0.0,0.0,0.0,0.0,0.0,0.0,0.0,0.0
1576083030538260901,276,0,,0.0,0.0,0.0,0.0,0.0,0.0,0.0,0.0,0.0,0.0,0.0,0.0,0.0,-0.369,0.116,0.15,0.0,0.0,0.0,0.0,0.0,0.0,0.0,0.0,0.0,0.245,3.094,9.36,0.0,0.0,0.0,0.0,0.0,0.0,0.0,0.0,0.0
1576083030586397348,277,0,,0.0,0.0,0.0,0.0,0.0,0.0,0.0,0.0,0.0,0.0,0.0,0.0,0.0,0.014,0.051,0.24,0.0,0.0,0.0,0.0,0.0,0.0,0.0,0.0,0.0,0.03,4.736,10.18,0.0,0.0,0.0,0.0,0.0,0.0,0.0,0.0,0.0
1576083030654086929,278,0,,0.0,0.0,0.0,0.0,0.0,0.0,0.0,0.0,0.0,0.0,0.0,0.0,0.0,0.547,0.078,-0.2,0.0,0.0,0.0,0.0,0.0,0.0,0.0,0.0,0.0,-0.358,3.884,6.5,0.0,0.0,0.0,0.0,0.0,0.0,0.0,0.0,0.0
1576083030735567280,279,0,,0.0,0.0,0.0,0.0,0.0,0.0,0.0,0.0,0.0,0.0,0.0,0.0,0.0,-0.083,-0.013,0.13,0.0,0.0,0.0,0.0,0.0,0.0,0.0,0.0,0.0,-1.084,4.665,11.78,0.0,0.0,0.0,0.0,0.0,0.0,0.0,0.0,0.0
1576083030788842392,280,0,,0.0,0.0,0.0,0.0,0.0,0.0,0.0,0.0,0.0,0.0,0.0,0.0,0.0,-0.139,0.025,-0.1,0.0,0.0,0.0,0.0,0.0,0.0,0.0,0.0,0.0,0.742,4.066,6.45,0.0,0.0,0.0,0.0,0.0,0.0,0.0,0.0,0.0
1576083030935080255,281,0,,0.0,0.0,0.0,0.0,0.0,0.0,0.0,0.0,0.0,0.0,0.0,0.0,0.0,-0.352,-0.125,-0.18,0.0,0.0,0.0,0.0,0.0,0.0,0.0,0.0,0.0,-0.917,1.805,7.94,0.0,0.0,0.0,0.0,0.0,0.0,0.0,0.0,0.0
1576083030992128869,282,0,,0.0,0.0,0.0,0.0,0.0,0.0,0.0,0.0,0.0,0.0,0.0,0.0,0.0,-0.073,0.114,0.38,0.0,0.0,0.0,0.0,0.0,0.0,0.0,0.0,0.0,-0.265,4.014,11.67,0.0,0.0,0.0,0.0,0.0,0.0,0.0,0.0,0.0
1576083031057663654,283,0,,0.0,0.0,0.0,0.0,0.0,0.0,0.0,0.0,0.0,0.0,0.0,0.0,0.0,0.152,0.436,0.0,0.0,0.0,0.0,0.0,0.0,0.0,0.0,0.0,0.0,-0.351,2.932,7.81,0.0,0.0,0.0,0.0,0.0,0.0,0.0,0.0,0.0
1576083031137172821,284,0,,0.0,0.0,0.0,0.0,0.0,0.0,0.0,0.0,0.0,0.0,0.0,0.0,0.0,-0.565,0.006,-0.01,0.0,0.0,0.0,0.0,0.0,0.0,0.0,0.0,0.0,0.703,2.54,10.58,0.0,0.0,0.0,0.0,0.0,0.0,0.0,0.0,0.0
1576083031248473721,285,0,,0.0,0.0,0.0,0.0,0.0,0.0,0.0,0.0,0.0,0.0,0.0,0.0,0.0,-0.094,0.032,0.01,0.0,0.0,0.0,0.0,0.0,0.0,0.0,0.0,0.0,-0.737,2.306,8.51,0.0,0.0,0.0,0.0,0.0,0.0,0.0,0.0,0.0
1576083031332852893,286,0,,0.0,0.0,0.0,0.0,0.0,0.0,0.0,0.0,0.0,0.0,0.0,0.0,0.0,-0.088,-0.045,-0.02,0.0,0.0,0.0,0.0,0.0,0.0,0.0,0.0,0.0,-0.268,1.414,10.56,0.0,0.0,0.0,0.0,0.0,0.0,0.0,0.0,0.0
1576083031386372132,287,0,,0.0,0.0,0.0,0.0,0.0,0.0,0.0,0.0,0.0,0.0,0.0,0.0,0.0,-1.141,-0.662,0.04,0.0,0.0,0.0,0.0,0.0,0.0,0.0,0.0,0.0,0.617,0.602,10.27,0.0,0.0,0.0,0.0,0.0,0.0,0.0,0.0,0.0
1576083031447868119,288,0,,0.0,0.0,0.0,0.0,0.0,0.0,0.0,0.0,0.0,0.0,0.0,0.0,0.0,-0.462,0.127,-0.02,0.0,0.0,0.0,0.0,0.0,0.0,0.0,0.0,0.0,1.13,1.211,6.86,0.0,0.0,0.0,0.0,0.0,0.0,0.0,0.0,0.0
1576083031532969232,289,0,,0.0,0.0,0.0,0.0,0.0,0.0,0.0,0.0,0.0,0.0,0.0,0.0,0.0,-1.046,-1.676,-0.03,0.0,0.0,0.0,0.0,0.0,0.0,0.0,0.0,0.0,2.392,0.174,13.39,0.0,0.0,0.0,0.0,0.0,0.0,0.0,0.0,0.0
1576083031593914436,290,0,,0.0,0.0,0.0,0.0,0.0,0.0,0.0,0.0,0.0,0.0,0.0,0.0,0.0,-0.988,-1.326,-0.24,0.0,0.0,0.0,0.0,0.0,0.0,0.0,0.0,0.0,1.843,0.44,9.84,0.0,0.0,0.0,0.0,0.0,0.0,0.0,0.0,0.0
1576083031652858678,291,0,,0.0,0.0,0.0,0.0,0.0,0.0,0.0,0.0,0.0,0.0,0.0,0.0,0.0,-0.137,0.873,-0.16,0.0,0.0,0.0,0.0,0.0,0.0,0.0,0.0,0.0,0.45,0.166,9.06,0.0,0.0,0.0,0.0,0.0,0.0,0.0,0.0,0.0
1576083031735140069,292,0,,0.0,0.0,0.0,0.0,0.0,0.0,0.0,0.0,0.0,0.0,0.0,0.0,0.0,0.002,0.442,-0.08,0.0,0.0,0.0,0.0,0.0,0.0,0.0,0.0,0.0,0.19,0.471,10.55,0.0,0.0,0.0,0.0,0.0,0.0,0.0,0.0,0.0
1576083031790651596,293,0,,0.0,0.0,0.0,0.0,0.0,0.0,0.0,0.0,0.0,0.0,0.0,0.0,0.0,0.064,0.272,0.23,0.0,0.0,0.0,0.0,0.0,0.0,0.0,0.0,0.0,1.648,0.996,10.99,0.0,0.0,0.0,0.0,0.0,0.0,0.0,0.0,0.0
1576083031854067527,294,0,,0.0,0.0,0.0,0.0,0.0,0.0,0.0,0.0,0.0,0.0,0.0,0.0,0.0,0.14,1.93,0.65,0.0,0.0,0.0,0.0,0.0,0.0,0.0,0.0,0.0,0.269,0.324,10.65,0.0,0.0,0.0,0.0,0.0,0.0,0.0,0.0,0.0
1576083031934668894,295,0,,0.0,0.0,0.0,0.0,0.0,0.0,0.0,0.0,0.0,0.0,0.0,0.0,0.0,-0.037,0.046,-0.01,0.0,0.0,0.0,0.0,0.0,0.0,0.0,0.0,0.0,0.348,1.046,9.0,0.0,0.0,0.0,0.0,0.0,0.0,0.0,0.0,0.0
1576083031986290503,296,0,,0.0,0.0,0.0,0.0,0.0,0.0,0.0,0.0,0.0,0.0,0.0,0.0,0.0,0.038,0.005,-0.04,0.0,0.0,0.0,0.0,0.0,0.0,0.0,0.0,0.0,-0.089,0.153,8.96,0.0,0.0,0.0,0.0,0.0,0.0,0.0,0.0,0.0
1576083032056398121,297,0,,0.0,0.0,0.0,0.0,0.0,0.0,0.0,0.0,0.0,0.0,0.0,0.0,0.0,0.079,0.006,-0.03,0.0,0.0,0.0,0.0,0.0,0.0,0.0,0.0,0.0,-0.215,0.172,9.96,0.0,0.0,0.0,0.0,0.0,0.0,0.0,0.0,0.0
1576083032191017121,298,0,,0.0,0.0,0.0,0.0,0.0,0.0,0.0,0.0,0.0,0.0,0.0,0.0,0.0,0.035,0.001,0.0,0.0,0.0,0.0,0.0,0.0,0.0,0.0,0.0,0.0,-0.23,0.164,10.99,0.0,0.0,0.0,0.0,0.0,0.0,0.0,0.0,0.0
1576083032257944064,299,0,,0.0,0.0,0.0,0.0,0.0,0.0,0.0,0.0,0.0,0.0,0.0,0.0,0.0,0.007,0.002,0.07,0.0,0.0,0.0,0.0,0.0,0.0,0.0,0.0,0.0,0.191,0.315,10.32,0.0,0.0,0.0,0.0,0.0,0.0,0.0,0.0,0.0
1576083032335038040,300,0,,0.0,0.0,0.0,0.0,0.0,0.0,0.0,0.0,0.0,0.0,0.0,0.0,0.0,0.004,-0.001,0.05,0.0,0.0,0.0,0.0,0.0,0.0,0.0,0.0,0.0,-0.601,-0.295,10.79,0.0,0.0,0.0,0.0,0.0,0.0,0.0,0.0,0.0
1576083032448274868,301,0,,0.0,0.0,0.0,0.0,0.0,0.0,0.0,0.0,0.0,0.0,0.0,0.0,0.0,0.017,0.007,0.07,0.0,0.0,0.0,0.0,0.0,0.0,0.0,0.0,0.0,0.735,-0.156,8.58,0.0,0.0,0.0,0.0,0.0,0.0,0.0,0.0,0.0
1576083032534202717,302,0,,0.0,0.0,0.0,0.0,0.0,0.0,0.0,0.0,0.0,0.0,0.0,0.0,0.0,-0.001,-0.007,0.15,0.0,0.0,0.0,0.0,0.0,0.0,0.0,0.0,0.0,-1.928,0.329,13.12,0.0,0.0,0.0,0.0,0.0,0.0,0.0,0.0,0.0
1576083032586000098,303,0,,0.0,0.0,0.0,0.0,0.0,0.0,0.0,0.0,0.0,0.0,0.0,0.0,0.0,0.018,-0.015,0.27,0.0,0.0,0.0,0.0,0.0,0.0,0.0,0.0,0.0,-0.284,0.215,11.43,0.0,0.0,0.0,0.0,0.0,0.0,0.0,0.0,0.0
1576083032650237520,304,0,,0.0,0.0,0.0,0.0,0.0,0.0,0.0,0.0,0.0,0.0,0.0,0.0,0.0,-0.011,0.015,0.15,0.0,0.0,0.0,0.0,0.0,0.0,0.0,0.0,0.0,-0.612,-0.208,9.42,0.0,0.0,0.0,0.0,0.0,0.0,0.0,0.0,0.0
1576083032734836683,305,0,,0.0,0.0,0.0,0.0,0.0,0.0,0.0,0.0,0.0,0.0,0.0,0.0,0.0,0.022,0.052,0.21,0.0,0.0,0.0,0.0,0.0,0.0,0.0,0.0,0.0,-1.071,0.547,8.25,0.0,0.0,0.0,0.0,0.0,0.0,0.0,0.0,0.0
1576083032788640515,306,0,,0.0,0.0,0.0,0.0,0.0,0.0,0.0,0.0,0.0,0.0,0.0,0.0,0.0,0.074,-0.055,0.19,0.0,0.0,0.0,0.0,0.0,0.0,0.0,0.0,0.0,0.151,1.866,10.53,0.0,0.0,0.0,0.0,0.0,0.0,0.0,0.0,0.0
1576083032852037899,307,0,,0.0,0.0,0.0,0.0,0.0,0.0,0.0,0.0,0.0,0.0,0.0,0.0,0.0,-0.005,0.018,0.1,0.0,0.0,0.0,0.0,0.0,0.0,0.0,0.0,0.0,-1.069,0.053,11.13,0.0,0.0,0.0,0.0,0.0,0.0,0.0,0.0,0.0
1576083032935877214,308,0,,0.0,0.0,0.0,0.0,0.0,0.0,0.0,0.0,0.0,0.0,0.0,0.0,0.0,-0.005,0.043,0.01,0.0,0.0,0.0,0.0,0.0,0.0,0.0,0.0,0.0,-0.999,1.917,7.88,0.0,0.0,0.0,0.0,0.0,0.0,0.0,0.0,0.0
1576083032994412811,309,0,,0.0,0.0,0.0,0.0,0.0,0.0,0.0,0.0,0.0,0.0,0.0,0.0,0.0,-0.057,-0.037,-0.26,0.0,0.0,0.0,0.0,0.0,0.0,0.0,0.0,0.0,0.011,-0.001,7.68,0.0,0.0,0.0,0.0,0.0,0.0,0.0,0.0,0.0
1576083033053946874,310,0,,0.0,0.0,0.0,0.0,0.0,0.0,0.0,0.0,0.0,0.0,0.0,0.0,0.0,-0.063,0.017,-0.16,0.0,0.0,0.0,0.0,0.0,0.0,0.0,0.0,0.0,-0.491,0.995,13.72,0.0,0.0,0.0,0.0,0.0,0.0,0.0,0.0,0.0
1576083033133580472,311,0,,0.0,0.0,0.0,0.0,0.0,0.0,0.0,0.0,0.0,0.0,0.0,0.0,0.0,-0.039,0.007,-0.2,0.0,0.0,0.0,0.0,0.0,0.0,0.0,0.0,0.0,0.01,-0.013,10.29,0.0,0.0,0.0,0.0,0.0,0.0,0.0,0.0,0.0
1576083033188689563,312,0,,0.0,0.0,0.0,0.0,0.0,0.0,0.0,0.0,0.0,0.0,0.0,0.0,0.0,0.077,-0.025,-0.22,0.0,0.0,0.0,0.0,0.0,0.0,0.0,0.0,0.0,-0.336,0.422,9.13,0.0,0.0,0.0,0.0,0.0,0.0,0.0,0.0,0.0
1576083033254273436,313,0,,0.0,0.0,0.0,0.0,0.0,0.0,0.0,0.0,0.0,0.0,0.0,0.0,0.0,0.023,0.007,-0.35,0.0,0.0,0.0,0.0,0.0,0.0,0.0,0.0,0.0,-0.169,0.584,7.62,0.0,0.0,0.0,0.0,0.0,0.0,0.0,0.0,0.0
1576083033340095600,314,0,,0.0,0.0,0.0,0.0,0.0,0.0,0.0,0.0,0.0,0.0,0.0,0.0,0.0,0.084,-0.008,-0.13,0.0,0.0,0.0,0.0,0.0,0.0,0.0,0.0,0.0,-0.21,0.695,9.25,0.0,0.0,0.0,0.0,0.0,0.0,0.0,0.0,0.0
1576083033390095990,315,0,,0.0,0.0,0.0,0.0,0.0,0.0,0.0,0.0,0.0,0.0,0.0,0.0,0.0,-0.018,0.024,-0.01,0.0,0.0,0.0,0.0,0.0,0.0,0.0,0.0,0.0,0.398,0.687,8.04,0.0,0.0,0.0,0.0,0.0,0.0,0.0,0.0,0.0
1576083033460872344,316,0,,0.0,0.0,0.0,0.0,0.0,0.0,0.0,0.0,0.0,0.0,0.0,0.0,0.0,0.03,0.038,0.08,0.0,0.0,0.0,0.0,0.0,0.0,0.0,0.0,0.0,-0.318,-1.251,8.3,0.0,0.0,0.0,0.0,0.0,0.0,0.0,0.0,0.0
1576083033536360213,317,0,,0.0,0.0,0.0,0.0,0.0,0.0,0.0,0.0,0.0,0.0,0.0,0.0,0.0,-0.081,-0.016,-0.06,0.0,0.0,0.0,0.0,0.0,0.0,0.0,0.0,0.0,-1.301,1.103,13.04,0.0,0.0,0.0,0.0,0.0,0.0,0.0,0.0,0.0
1576083033591100036,318,0,,0.0,0.0,0.0,0.0,0.0,0.0,0.0,0.0,0.0,0.0,0.0,0.0,0.0,-0.09,0.068,0.15,0.0,0.0,0.0,0.0,0.0,0.0,0.0,0.0,0.0,-0.519,-0.19,11.8,0.0,0.0,0.0,0.0,0.0,0.0,0.0,0.0,0.0
1576083033733369972,319,0,,0.0,0.0,0.0,0.0,0.0,0.0,0.0,0.0,0.0,0.0,0.0,0.0,0.0,0.026,-0.001,0.17,0.0,0.0,0.0,0.0,0.0,0.0,0.0,0.0,0.0,-0.323,1.02,13.16,0.0,0.0,0.0,0.0,0.0,0.0,0.0,0.0,0.0
1576083033785250050,320,0,,0.0,0.0,0.0,0.0,0.0,0.0,0.0,0.0,0.0,0.0,0.0,0.0,0.0,0.033,-0.007,0.13,0.0,0.0,0.0,0.0,0.0,0.0,0.0,0.0,0.0,0.119,0.296,12.17,0.0,0.0,0.0,0.0,0.0,0.0,0.0,0.0,0.0
1576083033853016862,321,0,,0.0,0.0,0.0,0.0,0.0,0.0,0.0,0.0,0.0,0.0,0.0,0.0,0.0,-0.043,0.067,0.09,0.0,0.0,0.0,0.0,0.0,0.0,0.0,0.0,0.0,-1.342,0.296,9.7,0.0,0.0,0.0,0.0,0.0,0.0,0.0,0.0,0.0
1576083033938380663,322,0,,0.0,0.0,0.0,0.0,0.0,0.0,0.0,0.0,0.0,0.0,0.0,0.0,0.0,0.003,0.039,0.03,0.0,0.0,0.0,0.0,0.0,0.0,0.0,0.0,0.0,0.077,0.787,9.6,0.0,0.0,0.0,0.0,0.0,0.0,0.0,0.0,0.0
1576083033987495799,323,0,,0.0,0.0,0.0,0.0,0.0,0.0,0.0,0.0,0.0,0.0,0.0,0.0,0.0,0.047,-0.02,-0.02,0.0,0.0,0.0,0.0,0.0,0.0,0.0,0.0,0.0,0.286,0.495,9.2,0.0,0.0,0.0,0.0,0.0,0.0,0.0,0.0,0.0
1576083034050601187,324,0,,0.0,0.0,0.0,0.0,0.0,0.0,0.0,0.0,0.0,0.0,0.0,0.0,0.0,-0.036,0.033,-0.05,0.0,0.0,0.0,0.0,0.0,0.0,0.0,0.0,0.0,-0.833,-0.191,9.67,0.0,0.0,0.0,0.0,0.0,0.0,0.0,0.0,0.0
1576083034132508269,325,0,,0.0,0.0,0.0,0.0,0.0,0.0,0.0,0.0,0.0,0.0,0.0,0.0,0.0,-0.043,0.027,-0.05,0.0,0.0,0.0,0.0,0.0,0.0,0.0,0.0,0.0,-0.464,0.369,10.2,0.0,0.0,0.0,0.0,0.0,0.0,0.0,0.0,0.0
1576083034185717667,326,0,,0.0,0.0,0.0,0.0,0.0,0.0,0.0,0.0,0.0,0.0,0.0,0.0,0.0,-0.047,0.015,-0.06,0.0,0.0,0.0,0.0,0.0,0.0,0.0,0.0,0.0,-0.608,0.565,9.76,0.0,0.0,0.0,0.0,0.0,0.0,0.0,0.0,0.0
1576083034272750174,327,0,,0.0,0.0,0.0,0.0,0.0,0.0,0.0,0.0,0.0,0.0,0.0,0.0,0.0,-0.027,-0.001,-0.05,0.0,0.0,0.0,0.0,0.0,0.0,0.0,0.0,0.0,-0.313,0.247,10.69,0.0,0.0,0.0,0.0,0.0,0.0,0.0,0.0,0.0
1576083034331907014,328,0,,0.0,0.0,0.0,0.0,0.0,0.0,0.0,0.0,0.0,0.0,0.0,0.0,0.0,-0.029,0.013,-0.01,0.0,0.0,0.0,0.0,0.0,0.0,0.0,0.0,0.0,-0.149,-0.047,7.88,0.0,0.0,0.0,0.0,0.0,0.0,0.0,0.0,0.0
1576083034421667294,329,0,,0.0,0.0,0.0,0.0,0.0,0.0,0.0,0.0,0.0,0.0,0.0,0.0,0.0,0.018,0.0,-0.0,0.0,0.0,0.0,0.0,0.0,0.0,0.0,0.0,0.0,-0.452,0.357,7.75,0.0,0.0,0.0,0.0,0.0,0.0,0.0,0.0,0.0
1576083034457841250,330,0,,0.0,0.0,0.0,0.0,0.0,0.0,0.0,0.0,0.0,0.0,0.0,0.0,0.0,0.007,0.01,0.04,0.0,0.0,0.0,0.0,0.0,0.0,0.0,0.0,0.0,-0.423,1.109,9.84,0.0,0.0,0.0,0.0,0.0,0.0,0.0,0.0,0.0
1576083034546711448,331,0,,0.0,0.0,0.0,0.0,0.0,0.0,0.0,0.0,0.0,0.0,0.0,0.0,0.0,-0.046,-0.006,0.05,0.0,0.0,0.0,0.0,0.0,0.0,0.0,0.0,0.0,-0.988,0.092,9.28,0.0,0.0,0.0,0.0,0.0,0.0,0.0,0.0,0.0
1576083034590369163,332,0,,0.0,0.0,0.0,0.0,0.0,0.0,0.0,0.0,0.0,0.0,0.0,0.0,0.0,-0.018,-0.004,0.11,0.0,0.0,0.0,0.0,0.0,0.0,0.0,0.0,0.0,0.115,0.716,11.09,0.0,0.0,0.0,0.0,0.0,0.0,0.0,0.0,0.0
1576083034660810614,333,0,,0.0,0.0,0.0,0.0,0.0,0.0,0.0,0.0,0.0,0.0,0.0,0.0,0.0,-0.038,0.008,0.14,0.0,0.0,0.0,0.0,0.0,0.0,0.0,0.0,0.0,-0.649,0.3,11.69,0.0,0.0,0.0,0.0,0.0,0.0,0.0,0.0,0.0
1576083034733670421,334,0,,0.0,0.0,0.0,0.0,0.0,0.0,0.0,0.0,0.0,0.0,0.0,0.0,0.0,-0.026,0.013,0.14,0.0,0.0,0.0,0.0,0.0,0.0,0.0,0.0,0.0,-0.378,0.467,9.69,0.0,0.0,0.0,0.0,0.0,0.0,0.0,0.0,0.0
1576083034791993317,335,0,,0.0,0.0,0.0,0.0,0.0,0.0,0.0,0.0,0.0,0.0,0.0,0.0,0.0,-0.013,0.005,0.15,0.0,0.0,0.0,0.0,0.0,0.0,0.0,0.0,0.0,-0.915,0.578,11.44,0.0,0.0,0.0,0.0,0.0,0.0,0.0,0.0,0.0
1576083034929018521,336,0,,0.0,0.0,0.0,0.0,0.0,0.0,0.0,0.0,0.0,0.0,0.0,0.0,0.0,-0.016,-0.007,0.18,0.0,0.0,0.0,0.0,0.0,0.0,0.0,0.0,0.0,-0.749,-0.715,13.38,0.0,0.0,0.0,0.0,0.0,0.0,0.0,0.0,0.0
1576083034986723428,337,0,,0.0,0.0,0.0,0.0,0.0,0.0,0.0,0.0,0.0,0.0,0.0,0.0,0.0,-0.053,0.001,0.19,0.0,0.0,0.0,0.0,0.0,0.0,0.0,0.0,0.0,-1.159,1.004,10.28,0.0,0.0,0.0,0.0,0.0,0.0,0.0,0.0,0.0
1576083035050119500,338,0,,0.0,0.0,0.0,0.0,0.0,0.0,0.0,0.0,0.0,0.0,0.0,0.0,0.0,-0.09,-0.017,0.19,0.0,0.0,0.0,0.0,0.0,0.0,0.0,0.0,0.0,0.09,-0.862,7.76,0.0,0.0,0.0,0.0,0.0,0.0,0.0,0.0,0.0
1576083035134222019,339,0,,0.0,0.0,0.0,0.0,0.0,0.0,0.0,0.0,0.0,0.0,0.0,0.0,0.0,-0.036,-0.018,0.18,0.0,0.0,0.0,0.0,0.0,0.0,0.0,0.0,0.0,-1.238,1.498,10.6,0.0,0.0,0.0,0.0,0.0,0.0,0.0,0.0,0.0
1576083035187596560,340,0,,0.0,0.0,0.0,0.0,0.0,0.0,0.0,0.0,0.0,0.0,0.0,0.0,0.0,0.069,0.069,0.23,0.0,0.0,0.0,0.0,0.0,0.0,0.0,0.0,0.0,-0.45,0.781,8.8,0.0,0.0,0.0,0.0,0.0,0.0,0.0,0.0,0.0
1576083035251806442,341,0,,0.0,0.0,0.0,0.0,0.0,0.0,0.0,0.0,0.0,0.0,0.0,0.0,0.0,-0.138,-0.014,0.22,0.0,0.0,0.0,0.0,0.0,0.0,0.0,0.0,0.0,-0.046,-0.444,10.51,0.0,0.0,0.0,0.0,0.0,0.0,0.0,0.0,0.0
1576083035338693386,342,0,,0.0,0.0,0.0,0.0,0.0,0.0,0.0,0.0,0.0,0.0,0.0,0.0,0.0,-0.051,-0.043,0.27,0.0,0.0,0.0,0.0,0.0,0.0,0.0,0.0,0.0,-0.791,-0.677,8.32,0.0,0.0,0.0,0.0,0.0,0.0,0.0,0.0,0.0
1576083035385493217,343,0,,0.0,0.0,0.0,0.0,0.0,0.0,0.0,0.0,0.0,0.0,0.0,0.0,0.0,0.063,-0.088,0.38,0.0,0.0,0.0,0.0,0.0,0.0,0.0,0.0,0.0,-0.111,0.115,5.52,0.0,0.0,0.0,0.0,0.0,0.0,0.0,0.0,0.0
1576083035453785764,344,0,,0.0,0.0,0.0,0.0,0.0,0.0,0.0,0.0,0.0,0.0,0.0,0.0,0.0,-0.093,0.014,0.43,0.0,0.0,0.0,0.0,0.0,0.0,0.0,0.0,0.0,-0.89,-1.562,9.02,0.0,0.0,0.0,0.0,0.0,0.0,0.0,0.0,0.0
1576083035600557890,345,0,,0.0,0.0,0.0,0.0,0.0,0.0,0.0,0.0,0.0,0.0,0.0,0.0,0.0,0.099,-0.021,0.41,0.0,0.0,0.0,0.0,0.0,0.0,0.0,0.0,0.0,0.103,-0.8,12.26,0.0,0.0,0.0,0.0,0.0,0.0,0.0,0.0,0.0
1576083035601313769,346,0,,0.0,0.0,0.0,0.0,0.0,0.0,0.0,0.0,0.0,0.0,0.0,0.0,0.0,0.066,-0.033,0.63,0.0,0.0,0.0,0.0,0.0,0.0,0.0,0.0,0.0,-0.904,0.338,10.91,0.0,0.0,0.0,0.0,0.0,0.0,0.0,0.0,0.0
1576083035655319516,347,0,,0.0,0.0,0.0,0.0,0.0,0.0,0.0,0.0,0.0,0.0,0.0,0.0,0.0,-0.113,0.077,0.32,0.0,0.0,0.0,0.0,0.0,0.0,0.0,0.0,0.0,-1.762,-0.867,14.68,0.0,0.0,0.0,0.0,0.0,0.0,0.0,0.0,0.0
1576083035733596723,348,0,,0.0,0.0,0.0,0.0,0.0,0.0,0.0,0.0,0.0,0.0,0.0,0.0,0.0,-0.082,-0.007,0.3,0.0,0.0,0.0,0.0,0.0,0.0,0.0,0.0,0.0,-1.393,-0.631,8.99,0.0,0.0,0.0,0.0,0.0,0.0,0.0,0.0,0.0
1576083035788149644,349,0,,0.0,0.0,0.0,0.0,0.0,0.0,0.0,0.0,0.0,0.0,0.0,0.0,0.0,0.038,-0.007,0.57,0.0,0.0,0.0,0.0,0.0,0.0,0.0,0.0,0.0,-0.152,0.42,7.03,0.0,0.0,0.0,0.0,0.0,0.0,0.0,0.0,0.0
1576083035933598336,350,0,,0.0,0.0,0.0,0.0,0.0,0.0,0.0,0.0,0.0,0.0,0.0,0.0,0.0,0.002,-0.012,0.61,0.0,0.0,0.0,0.0,0.0,0.0,0.0,0.0,0.0,-0.507,0.363,9.47,0.0,0.0,0.0,0.0,0.0,0.0,0.0,0.0,0.0
1576083035991812964,351,0,,0.0,0.0,0.0,0.0,0.0,0.0,0.0,0.0,0.0,0.0,0.0,0.0,0.0,-0.003,-0.049,0.51,0.0,0.0,0.0,0.0,0.0,0.0,0.0,0.0,0.0,-0.839,0.792,8.83,0.0,0.0,0.0,0.0,0.0,0.0,0.0,0.0,0.0
1576083036061538705,352,0,,0.0,0.0,0.0,0.0,0.0,0.0,0.0,0.0,0.0,0.0,0.0,0.0,0.0,0.001,-0.012,0.41,0.0,0.0,0.0,0.0,0.0,0.0,0.0,0.0,0.0,-0.821,-0.213,9.94,0.0,0.0,0.0,0.0,0.0,0.0,0.0,0.0,0.0
1576083036191173699,353,0,,0.0,0.0,0.0,0.0,0.0,0.0,0.0,0.0,0.0,0.0,0.0,0.0,0.0,-0.032,0.051,0.39,0.0,0.0,0.0,0.0,0.0,0.0,0.0,0.0,0.0,-2.886,3.702,4.85,0.0,0.0,0.0,0.0,0.0,0.0,0.0,0.0,0.0
1576083036248332586,354,0,,0.0,0.0,0.0,0.0,0.0,0.0,0.0,0.0,0.0,0.0,0.0,0.0,0.0,-0.297,-0.225,0.29,0.0,0.0,0.0,0.0,0.0,0.0,0.0,0.0,0.0,-0.323,-2.519,10.09,0.0,0.0,0.0,0.0,0.0,0.0,0.0,0.0,0.0
1576083036333959939,355,0,,0.0,0.0,0.0,0.0,0.0,0.0,0.0,0.0,0.0,0.0,0.0,0.0,0.0,-0.032,0.051,0.94,0.0,0.0,0.0,0.0,0.0,0.0,0.0,0.0,0.0,-1.574,2.313,12.4,0.0,0.0,0.0,0.0,0.0,0.0,0.0,0.0,0.0
1576083036386810843,356,0,,0.0,0.0,0.0,0.0,0.0,0.0,0.0,0.0,0.0,0.0,0.0,0.0,0.0,0.408,0.071,0.59,0.0,0.0,0.0,0.0,0.0,0.0,0.0,0.0,0.0,-0.872,1.717,10.31,0.0,0.0,0.0,0.0,0.0,0.0,0.0,0.0,0.0
1576083036451743549,357,0,,0.0,0.0,0.0,0.0,0.0,0.0,0.0,0.0,0.0,0.0,0.0,0.0,0.0,-0.045,0.002,0.4,0.0,0.0,0.0,0.0,0.0,0.0,0.0,0.0,0.0,-0.918,-0.448,9.82,0.0,0.0,0.0,0.0,0.0,0.0,0.0,0.0,0.0
1576083036531480181,358,0,,0.0,0.0,0.0,0.0,0.0,0.0,0.0,0.0,0.0,0.0,0.0,0.0,0.0,0.039,-0.037,0.53,0.0,0.0,0.0,0.0,0.0,0.0,0.0,0.0,0.0,-1.405,0.391,8.36,0.0,0.0,0.0,0.0,0.0,0.0,0.0,0.0,0.0
1576083036587720035,359,0,,0.0,0.0,0.0,0.0,0.0,0.0,0.0,0.0,0.0,0.0,0.0,0.0,0.0,-0.051,0.009,0.61,0.0,0.0,0.0,0.0,0.0,0.0,0.0,0.0,0.0,-0.744,1.311,8.47,0.0,0.0,0.0,0.0,0.0,0.0,0.0,0.0,0.0
1576083036652289922,360,0,,0.0,0.0,0.0,0.0,0.0,0.0,0.0,0.0,0.0,0.0,0.0,0.0,0.0,0.074,-0.089,0.65,0.0,0.0,0.0,0.0,0.0,0.0,0.0,0.0,0.0,-0.629,-0.823,11.6,0.0,0.0,0.0,0.0,0.0,0.0,0.0,0.0,0.0
1576083036730746492,361,0,,0.0,0.0,0.0,0.0,0.0,0.0,0.0,0.0,0.0,0.0,0.0,0.0,0.0,0.01,-0.048,0.13,0.0,0.0,0.0,0.0,0.0,0.0,0.0,0.0,0.0,-1.826,0.705,10.76,0.0,0.0,0.0,0.0,0.0,0.0,0.0,0.0,0.0
1576083036787710323,362,0,,0.0,0.0,0.0,0.0,0.0,0.0,0.0,0.0,0.0,0.0,0.0,0.0,0.0,-0.07,0.071,0.5,0.0,0.0,0.0,0.0,0.0,0.0,0.0,0.0,0.0,-0.962,-0.754,9.73,0.0,0.0,0.0,0.0,0.0,0.0,0.0,0.0,0.0
1576083036856375100,363,0,,0.0,0.0,0.0,0.0,0.0,0.0,0.0,0.0,0.0,0.0,0.0,0.0,0.0,0.019,-0.01,0.84,0.0,0.0,0.0,0.0,0.0,0.0,0.0,0.0,0.0,-0.908,1.053,10.16,0.0,0.0,0.0,0.0,0.0,0.0,0.0,0.0,0.0
1576083036931718602,364,0,,0.0,0.0,0.0,0.0,0.0,0.0,0.0,0.0,0.0,0.0,0.0,0.0,0.0,0.003,-0.016,0.8,0.0,0.0,0.0,0.0,0.0,0.0,0.0,0.0,0.0,-1.5,0.118,9.41,0.0,0.0,0.0,0.0,0.0,0.0,0.0,0.0,0.0
1576083037057140756,365,0,,0.0,0.0,0.0,0.0,0.0,0.0,0.0,0.0,0.0,0.0,0.0,0.0,0.0,-0.01,-0.012,0.81,0.0,0.0,0.0,0.0,0.0,0.0,0.0,0.0,0.0,-1.347,0.374,9.56,0.0,0.0,0.0,0.0,0.0,0.0,0.0,0.0,0.0
1576083037133332161,366,0,,0.0,0.0,0.0,0.0,0.0,0.0,0.0,0.0,0.0,0.0,0.0,0.0,0.0,-0.018,-0.018,0.8,0.0,0.0,0.0,0.0,0.0,0.0,0.0,0.0,0.0,-1.369,0.674,9.54,0.0,0.0,0.0,0.0,0.0,0.0,0.0,0.0,0.0
1576083037190952040,367,0,,0.0,0.0,0.0,0.0,0.0,0.0,0.0,0.0,0.0,0.0,0.0,0.0,0.0,-0.006,-0.031,0.81,0.0,0.0,0.0,0.0,0.0,0.0,0.0,0.0,0.0,-1.15,0.801,9.88,0.0,0.0,0.0,0.0,0.0,0.0,0.0,0.0,0.0
1576083037328181640,368,0,,0.0,0.0,0.0,0.0,0.0,0.0,0.0,0.0,0.0,0.0,0.0,0.0,0.0,-0.011,-0.019,0.83,0.0,0.0,0.0,0.0,0.0,0.0,0.0,0.0,0.0,-0.873,0.805,10.34,0.0,0.0,0.0,0.0,0.0,0.0,0.0,0.0,0.0
1576083037384088474,369,0,,0.0,0.0,0.0,0.0,0.0,0.0,0.0,0.0,0.0,0.0,0.0,0.0,0.0,-0.006,-0.003,0.85,0.0,0.0,0.0,0.0,0.0,0.0,0.0,0.0,0.0,-2.029,0.551,10.66,0.0,0.0,0.0,0.0,0.0,0.0,0.0,0.0,0.0
1576083037449411752,370,0,,0.0,0.0,0.0,0.0,0.0,0.0,0.0,0.0,0.0,0.0,0.0,0.0,0.0,-0.022,-0.027,0.91,0.0,0.0,0.0,0.0,0.0,0.0,0.0,0.0,0.0,-1.565,-0.279,6.61,0.0,0.0,0.0,0.0,0.0,0.0,0.0,0.0,0.0
1576083037531299066,371,0,,0.0,0.0,0.0,0.0,0.0,0.0,0.0,0.0,0.0,0.0,0.0,0.0,0.0,0.044,-0.058,0.94,0.0,0.0,0.0,0.0,0.0,0.0,0.0,0.0,0.0,-1.971,2.816,10.51,0.0,0.0,0.0,0.0,0.0,0.0,0.0,0.0,0.0
1576083037587200064,372,0,,0.0,0.0,0.0,0.0,0.0,0.0,0.0,0.0,0.0,0.0,0.0,0.0,0.0,-0.045,-0.016,0.94,0.0,0.0,0.0,0.0,0.0,0.0,0.0,0.0,0.0,-0.853,-0.027,10.03,0.0,0.0,0.0,0.0,0.0,0.0,0.0,0.0,0.0
1576083037651504016,373,0,,0.0,0.0,0.0,0.0,0.0,0.0,0.0,0.0,0.0,0.0,0.0,0.0,0.0,0.016,-0.014,0.93,0.0,0.0,0.0,0.0,0.0,0.0,0.0,0.0,0.0,-0.573,1.764,10.24,0.0,0.0,0.0,0.0,0.0,0.0,0.0,0.0,0.0
1576083037731316446,374,0,,0.0,0.0,0.0,0.0,0.0,0.0,0.0,0.0,0.0,0.0,0.0,0.0,0.0,0.03,-0.003,0.76,0.0,0.0,0.0,0.0,0.0,0.0,0.0,0.0,0.0,-0.43,0.299,8.82,0.0,0.0,0.0,0.0,0.0,0.0,0.0,0.0,0.0
1576083037786895543,375,0,,0.0,0.0,0.0,0.0,0.0,0.0,0.0,0.0,0.0,0.0,0.0,0.0,0.0,-0.036,-0.024,0.69,0.0,0.0,0.0,0.0,0.0,0.0,0.0,0.0,0.0,0.015,1.214,10.75,0.0,0.0,0.0,0.0,0.0,0.0,0.0,0.0,0.0
1576083037852707157,376,0,,0.0,0.0,0.0,0.0,0.0,0.0,0.0,0.0,0.0,0.0,0.0,0.0,0.0,0.031,-0.012,0.58,0.0,0.0,0.0,0.0,0.0,0.0,0.0,0.0,0.0,-0.556,0.368,9.74,0.0,0.0,0.0,0.0,0.0,0.0,0.0,0.0,0.0
1576083037931590811,377,0,,0.0,0.0,0.0,0.0,0.0,0.0,0.0,0.0,0.0,0.0,0.0,0.0,0.0,-0.024,-0.003,0.57,0.0,0.0,0.0,0.0,0.0,0.0,0.0,0.0,0.0,-0.052,0.625,9.77,0.0,0.0,0.0,0.0,0.0,0.0,0.0,0.0,0.0
1576083037986641741,378,0,,0.0,0.0,0.0,0.0,0.0,0.0,0.0,0.0,0.0,0.0,0.0,0.0,0.0,0.007,-0.012,0.55,0.0,0.0,0.0,0.0,0.0,0.0,0.0,0.0,0.0,-0.29,0.575,9.16,0.0,0.0,0.0,0.0,0.0,0.0,0.0,0.0,0.0
1576083038059227912,379,0,,0.0,0.0,0.0,0.0,0.0,0.0,0.0,0.0,0.0,0.0,0.0,0.0,0.0,-0.015,-0.005,0.5,0.0,0.0,0.0,0.0,0.0,0.0,0.0,0.0,0.0,-0.23,1.089,9.58,0.0,0.0,0.0,0.0,0.0,0.0,0.0,0.0,0.0
1576083038131878942,380,0,,0.0,0.0,0.0,0.0,0.0,0.0,0.0,0.0,0.0,0.0,0.0,0.0,0.0,0.001,-0.022,0.38,0.0,0.0,0.0,0.0,0.0,0.0,0.0,0.0,0.0,-0.311,0.809,9.8,0.0,0.0,0.0,0.0,0.0,0.0,0.0,0.0,0.0
1576083038189002407,381,0,,0.0,0.0,0.0,0.0,0.0,0.0,0.0,0.0,0.0,0.0,0.0,0.0,0.0,0.002,-0.006,0.36,0.0,0.0,0.0,0.0,0.0,0.0,0.0,0.0,0.0,-0.383,0.525,8.62,0.0,0.0,0.0,0.0,0.0,0.0,0.0,0.0,0.0
1576083038256603938,382,0,,0.0,0.0,0.0,0.0,0.0,0.0,0.0,0.0,0.0,0.0,0.0,0.0,0.0,-0.011,-0.027,0.34,0.0,0.0,0.0,0.0,0.0,0.0,0.0,0.0,0.0,-0.384,0.882,10.06,0.0,0.0,0.0,0.0,0.0,0.0,0.0,0.0,0.0
1576083038330723790,383,0,,0.0,0.0,0.0,0.0,0.0,0.0,0.0,0.0,0.0,0.0,0.0,0.0,0.0,0.007,-0.006,0.34,0.0,0.0,0.0,0.0,0.0,0.0,0.0,0.0,0.0,0.097,-0.732,8.3,0.0,0.0,0.0,0.0,0.0,0.0,0.0,0.0,0.0
1576083038390995713,384,0,,0.0,0.0,0.0,0.0,0.0,0.0,0.0,0.0,0.0,0.0,0.0,0.0,0.0,0.076,-0.004,0.32,0.0,0.0,0.0,0.0,0.0,0.0,0.0,0.0,0.0,-1.102,0.586,12.08,0.0,0.0,0.0,0.0,0.0,0.0,0.0,0.0,0.0
1576083038457716037,385,0,,0.0,0.0,0.0,0.0,0.0,0.0,0.0,0.0,0.0,0.0,0.0,0.0,0.0,0.025,-0.03,0.29,0.0,0.0,0.0,0.0,0.0,0.0,0.0,0.0,0.0,-0.323,-0.214,8.82,0.0,0.0,0.0,0.0,0.0,0.0,0.0,0.0,0.0
1576083038584852386,386,0,,0.0,0.0,0.0,0.0,0.0,0.0,0.0,0.0,0.0,0.0,0.0,0.0,0.0,0.002,-0.006,0.29,0.0,0.0,0.0,0.0,0.0,0.0,0.0,0.0,0.0,-0.442,-0.121,8.65,0.0,0.0,0.0,0.0,0.0,0.0,0.0,0.0,0.0
1576083038652424574,387,0,,0.0,0.0,0.0,0.0,0.0,0.0,0.0,0.0,0.0,0.0,0.0,0.0,0.0,-0.033,0.005,0.31,0.0,0.0,0.0,0.0,0.0,0.0,0.0,0.0,0.0,-0.064,0.627,9.7,0.0,0.0,0.0,0.0,0.0,0.0,0.0,0.0,0.0
1576083038730588376,388,0,,0.0,0.0,0.0,0.0,0.0,0.0,0.0,0.0,0.0,0.0,0.0,0.0,0.0,0.002,0.006,0.31,0.0,0.0,0.0,0.0,0.0,0.0,0.0,0.0,0.0,-0.473,0.327,11.67,0.0,0.0,0.0,0.0,0.0,0.0,0.0,0.0,0.0
1576083038786140803,389,0,,0.0,0.0,0.0,0.0,0.0,0.0,0.0,0.0,0.0,0.0,0.0,0.0,0.0,-0.016,-0.007,0.3,0.0,0.0,0.0,0.0,0.0,0.0,0.0,0.0,0.0,-0.236,0.509,11.63,0.0,0.0,0.0,0.0,0.0,0.0,0.0,0.0,0.0
1576083038853711110,390,0,,0.0,0.0,0.0,0.0,0.0,0.0,0.0,0.0,0.0,0.0,0.0,0.0,0.0,-0.015,-0.009,0.28,0.0,0.0,0.0,0.0,0.0,0.0,0.0,0.0,0.0,0.129,-0.579,9.17,0.0,0.0,0.0,0.0,0.0,0.0,0.0,0.0,0.0
1576083038930080776,391,0,,0.0,0.0,0.0,0.0,0.0,0.0,0.0,0.0,0.0,0.0,0.0,0.0,0.0,-0.011,-0.002,0.26,0.0,0.0,0.0,0.0,0.0,0.0,0.0,0.0,0.0,-0.092,-0.115,9.75,0.0,0.0,0.0,0.0,0.0,0.0,0.0,0.0,0.0
1576083038986979008,392,0,,0.0,0.0,0.0,0.0,0.0,0.0,0.0,0.0,0.0,0.0,0.0,0.0,0.0,0.011,-0.004,0.21,0.0,0.0,0.0,0.0,0.0,0.0,0.0,0.0,0.0,-0.124,0.02,10.39,0.0,0.0,0.0,0.0,0.0,0.0,0.0,0.0,0.0
1576083039052456565,393,0,,0.0,0.0,0.0,0.0,0.0,0.0,0.0,0.0,0.0,0.0,0.0,0.0,0.0,0.02,0.009,0.18,0.0,0.0,0.0,0.0,0.0,0.0,0.0,0.0,0.0,0.082,0.251,11.85,0.0,0.0,0.0,0.0,0.0,0.0,0.0,0.0,0.0
1576083039126346483,394,0,,0.0,0.0,0.0,0.0,0.0,0.0,0.0,0.0,0.0,0.0,0.0,0.0,0.0,-0.01,-0.012,0.14,0.0,0.0,0.0,0.0,0.0,0.0,0.0,0.0,0.0,-0.181,0.033,9.61,0.0,0.0,0.0,0.0,0.0,0.0,0.0,0.0,0.0
1576083039189074691,395,0,,0.0,0.0,0.0,0.0,0.0,0.0,0.0,0.0,0.0,0.0,0.0,0.0,0.0,0.004,-0.002,0.12,0.0,0.0,0.0,0.0,0.0,0.0,0.0,0.0,0.0,-0.74,0.465,10.82,0.0,0.0,0.0,0.0,0.0,0.0,0.0,0.0,0.0
1576083039254989937,396,0,,0.0,0.0,0.0,0.0,0.0,0.0,0.0,0.0,0.0,0.0,0.0,0.0,0.0,-0.014,-0.013,0.13,0.0,0.0,0.0,0.0,0.0,0.0,0.0,0.0,0.0,-0.555,-0.116,6.52,0.0,0.0,0.0,0.0,0.0,0.0,0.0,0.0,0.0
1576083039327928060,397,0,,0.0,0.0,0.0,0.0,0.0,0.0,0.0,0.0,0.0,0.0,0.0,0.0,0.0,-0.018,-0.063,0.15,0.0,0.0,0.0,0.0,0.0,0.0,0.0,0.0,0.0,1.173,-0.6,6.58,0.0,0.0,0.0,0.0,0.0,0.0,0.0,0.0,0.0
1576083039390115773,398,0,,0.0,0.0,0.0,0.0,0.0,0.0,0.0,0.0,0.0,0.0,0.0,0.0,0.0,-0.108,0.036,0.05,0.0,0.0,0.0,0.0,0.0,0.0,0.0,0.0,0.0,-0.009,0.569,9.06,0.0,0.0,0.0,0.0,0.0,0.0,0.0,0.0,0.0
1576083039528804827,399,0,,0.0,0.0,0.0,0.0,0.0,0.0,0.0,0.0,0.0,0.0,0.0,0.0,0.0,-0.015,0.002,0.15,0.0,0.0,0.0,0.0,0.0,0.0,0.0,0.0,0.0,0.288,-0.476,9.5,0.0,0.0,0.0,0.0,0.0,0.0,0.0,0.0,0.0
1576083039658602991,400,0,,0.0,0.0,0.0,0.0,0.0,0.0,0.0,0.0,0.0,0.0,0.0,0.0,0.0,0.007,0.021,0.1,0.0,0.0,0.0,0.0,0.0,0.0,0.0,0.0,0.0,-1.402,0.382,10.68,0.0,0.0,0.0,0.0,0.0,0.0,0.0,0.0,0.0
1576083039724325096,401,0,,0.0,0.0,0.0,0.0,0.0,0.0,0.0,0.0,0.0,0.0,0.0,0.0,0.0,-0.037,0.013,-0.06,0.0,0.0,0.0,0.0,0.0,0.0,0.0,0.0,0.0,1.145,-0.33,9.85,0.0,0.0,0.0,0.0,0.0,0.0,0.0,0.0,0.0
1576083039848392579,402,0,,0.0,0.0,0.0,0.0,0.0,0.0,0.0,0.0,0.0,0.0,0.0,0.0,0.0,0.006,0.007,-0.0,0.0,0.0,0.0,0.0,0.0,0.0,0.0,0.0,0.0,0.189,0.096,10.4,0.0,0.0,0.0,0.0,0.0,0.0,0.0,0.0,0.0
1576083039927467371,403,0,,0.0,0.0,0.0,0.0,0.0,0.0,0.0,0.0,0.0,0.0,0.0,0.0,0.0,-0.034,0.006,0.03,0.0,0.0,0.0,0.0,0.0,0.0,0.0,0.0,0.0,0.234,-0.449,10.8,0.0,0.0,0.0,0.0,0.0,0.0,0.0,0.0,0.0
1576083039989330434,404,0,,0.0,0.0,0.0,0.0,0.0,0.0,0.0,0.0,0.0,0.0,0.0,0.0,0.0,0.007,0.007,0.06,0.0,0.0,0.0,0.0,0.0,0.0,0.0,0.0,0.0,0.043,-0.49,9.49,0.0,0.0,0.0,0.0,0.0,0.0,0.0,0.0,0.0
1576083040050407429,405,0,,0.0,0.0,0.0,0.0,0.0,0.0,0.0,0.0,0.0,0.0,0.0,0.0,0.0,-0.001,-0.0,0.02,0.0,0.0,0.0,0.0,0.0,0.0,0.0,0.0,0.0,0.141,-1.257,9.57,0.0,0.0,0.0,0.0,0.0,0.0,0.0,0.0,0.0
1576083040130146118,406,0,,0.0,0.0,0.0,0.0,0.0,0.0,0.0,0.0,0.0,0.0,0.0,0.0,0.0,-0.024,-0.006,0.0,0.0,0.0,0.0,0.0,0.0,0.0,0.0,0.0,0.0,0.067,-0.622,10.56,0.0,0.0,0.0,0.0,0.0,0.0,0.0,0.0,0.0
1576083040187459934,407,0,,0.0,0.0,0.0,0.0,0.0,0.0,0.0,0.0,0.0,0.0,0.0,0.0,0.0,0.02,-0.006,-0.0,0.0,0.0,0.0,0.0,0.0,0.0,0.0,0.0,0.0,0.218,-1.126,9.57,0.0,0.0,0.0,0.0,0.0,0.0,0.0,0.0,0.0
1576083040252806163,408,0,,0.0,0.0,0.0,0.0,0.0,0.0,0.0,0.0,0.0,0.0,0.0,0.0,0.0,-0.004,-0.0,-0.0,0.0,0.0,0.0,0.0,0.0,0.0,0.0,0.0,0.0,0.497,-0.689,10.06,0.0,0.0,0.0,0.0,0.0,0.0,0.0,0.0,0.0
1576083040324016277,409,0,,0.0,0.0,0.0,0.0,0.0,0.0,0.0,0.0,0.0,0.0,0.0,0.0,0.0,0.003,0.002,-0.02,0.0,0.0,0.0,0.0,0.0,0.0,0.0,0.0,0.0,0.246,-1.027,9.56,0.0,0.0,0.0,0.0,0.0,0.0,0.0,0.0,0.0
1576083040386749391,410,0,,0.0,0.0,0.0,0.0,0.0,0.0,0.0,0.0,0.0,0.0,0.0,0.0,0.0,0.011,-0.001,-0.02,0.0,0.0,0.0,0.0,0.0,0.0,0.0,0.0,0.0,0.393,-0.838,9.31,0.0,0.0,0.0,0.0,0.0,0.0,0.0,0.0,0.0
1576083040454121279,411,0,,0.0,0.0,0.0,0.0,0.0,0.0,0.0,0.0,0.0,0.0,0.0,0.0,0.0,0.007,-0.001,-0.04,0.0,0.0,0.0,0.0,0.0,0.0,0.0,0.0,0.0,0.451,-1.171,9.49,0.0,0.0,0.0,0.0,0.0,0.0,0.0,0.0,0.0
1576083040530242386,412,0,,0.0,0.0,0.0,0.0,0.0,0.0,0.0,0.0,0.0,0.0,0.0,0.0,0.0,0.013,0.002,-0.02,0.0,0.0,0.0,0.0,0.0,0.0,0.0,0.0,0.0,0.197,-0.899,9.7,0.0,0.0,0.0,0.0,0.0,0.0,0.0,0.0,0.0
1576083040593132155,413,0,,0.0,0.0,0.0,0.0,0.0,0.0,0.0,0.0,0.0,0.0,0.0,0.0,0.0,0.006,-0.003,-0.03,0.0,0.0,0.0,0.0,0.0,0.0,0.0,0.0,0.0,0.374,-0.876,9.8,0.0,0.0,0.0,0.0,0.0,0.0,0.0,0.0,0.0
1576083040674753929,414,0,,0.0,0.0,0.0,0.0,0.0,0.0,0.0,0.0,0.0,0.0,0.0,0.0,0.0,-0.003,-0.001,-0.01,0.0,0.0,0.0,0.0,0.0,0.0,0.0,0.0,0.0,0.584,-0.982,9.62,0.0,0.0,0.0,0.0,0.0,0.0,0.0,0.0,0.0
1576083040730759119,415,0,,0.0,0.0,0.0,0.0,0.0,0.0,0.0,0.0,0.0,0.0,0.0,0.0,0.0,0.007,-0.001,0.01,0.0,0.0,0.0,0.0,0.0,0.0,0.0,0.0,0.0,0.234,-0.176,9.74,0.0,0.0,0.0,0.0,0.0,0.0,0.0,0.0,0.0
1576083040794001480,416,0,,0.0,0.0,0.0,0.0,0.0,0.0,0.0,0.0,0.0,0.0,0.0,0.0,0.0,0.003,-0.002,0.01,0.0,0.0,0.0,0.0,0.0,0.0,0.0,0.0,0.0,0.232,0.412,9.72,0.0,0.0,0.0,0.0,0.0,0.0,0.0,0.0,0.0
1576083040858731674,417,0,,0.0,0.0,0.0,0.0,0.0,0.0,0.0,0.0,0.0,0.0,0.0,0.0,0.0,-0.002,0.0,-0.0,0.0,0.0,0.0,0.0,0.0,0.0,0.0,0.0,0.0,0.481,0.367,9.69,0.0,0.0,0.0,0.0,0.0,0.0,0.0,0.0,0.0
1576083040992065949,418,0,,0.0,0.0,0.0,0.0,0.0,0.0,0.0,0.0,0.0,0.0,0.0,0.0,0.0,-0.001,0.001,-0.0,0.0,0.0,0.0,0.0,0.0,0.0,0.0,0.0,0.0,0.361,0.117,9.57,0.0,0.0,0.0,0.0,0.0,0.0,0.0,0.0,0.0
1576083041048588407,419,0,,0.0,0.0,0.0,0.0,0.0,0.0,0.0,0.0,0.0,0.0,0.0,0.0,0.0,-0.001,-0.001,-0.0,0.0,0.0,0.0,0.0,0.0,0.0,0.0,0.0,0.0,0.389,0.035,9.74,0.0,0.0,0.0,0.0,0.0,0.0,0.0,0.0,0.0
1576083041127181931,420,0,,0.0,0.0,0.0,0.0,0.0,0.0,0.0,0.0,0.0,0.0,0.0,0.0,0.0,0.002,-0.0,0.0,0.0,0.0,0.0,0.0,0.0,0.0,0.0,0.0,0.0,0.297,0.272,9.72,0.0,0.0,0.0,0.0,0.0,0.0,0.0,0.0,0.0
1576083041185148542,421,0,,0.0,0.0,0.0,0.0,0.0,0.0,0.0,0.0,0.0,0.0,0.0,0.0,0.0,0.004,-0.0,-0.0,0.0,0.0,0.0,0.0,0.0,0.0,0.0,0.0,0.0,0.318,0.282,10.06,0.0,0.0,0.0,0.0,0.0,0.0,0.0,0.0,0.0
1576083042387094494,422,0,,0.0,0.0,0.0,0.0,0.0,0.0,0.0,0.0,0.0,0.0,0.0,0.0,0.0,0.002,-0.001,0.0,0.0,0.0,0.0,0.0,0.0,0.0,0.0,0.0,0.0,0.246,0.325,9.74,0.0,0.0,0.0,0.0,0.0,0.0,0.0,0.0,0.0
1576083042447217629,423,0,,0.0,0.0,0.0,0.0,0.0,0.0,0.0,0.0,0.0,0.0,0.0,0.0,0.0,0.0,-0.0,-0.0,0.0,0.0,0.0,0.0,0.0,0.0,0.0,0.0,0.0,0.18,0.144,9.72,0.0,0.0,0.0,0.0,0.0,0.0,0.0,0.0,0.0
1576083042516660123,424,0,,0.0,0.0,0.0,0.0,0.0,0.0,0.0,0.0,0.0,0.0,0.0,0.0,0.0,-0.001,-0.001,-0.0,0.0,0.0,0.0,0.0,0.0,0.0,0.0,0.0,0.0,0.439,0.128,9.72,0.0,0.0,0.0,0.0,0.0,0.0,0.0,0.0,0.0
1576083042584396249,425,0,,0.0,0.0,0.0,0.0,0.0,0.0,0.0,0.0,0.0,0.0,0.0,0.0,0.0,0.001,-0.001,-0.0,0.0,0.0,0.0,0.0,0.0,0.0,0.0,0.0,0.0,0.395,0.257,9.72,0.0,0.0,0.0,0.0,0.0,0.0,0.0,0.0,0.0
1576083042673055404,426,0,,0.0,0.0,0.0,0.0,0.0,0.0,0.0,0.0,0.0,0.0,0.0,0.0,0.0,0.0,-0.0,-0.0,0.0,0.0,0.0,0.0,0.0,0.0,0.0,0.0,0.0,0.27,0.185,9.69,0.0,0.0,0.0,0.0,0.0,0.0,0.0,0.0,0.0
1576083042717784798,427,0,,0.0,0.0,0.0,0.0,0.0,0.0,0.0,0.0,0.0,0.0,0.0,0.0,0.0,-0.0,-0.0,0.0,0.0,0.0,0.0,0.0,0.0,0.0,0.0,0.0,0.0,0.382,0.175,9.72,0.0,0.0,0.0,0.0,0.0,0.0,0.0,0.0,0.0
1576083042784230187,428,0,,0.0,0.0,0.0,0.0,0.0,0.0,0.0,0.0,0.0,0.0,0.0,0.0,0.0,0.001,-0.0,-0.0,0.0,0.0,0.0,0.0,0.0,0.0,0.0,0.0,0.0,0.355,0.217,9.7,0.0,0.0,0.0,0.0,0.0,0.0,0.0,0.0,0.0
1576083042871954302,429,0,,0.0,0.0,0.0,0.0,0.0,0.0,0.0,0.0,0.0,0.0,0.0,0.0,0.0,0.001,0.0,0.0,0.0,0.0,0.0,0.0,0.0,0.0,0.0,0.0,0.0,0.268,0.15,9.71,0.0,0.0,0.0,0.0,0.0,0.0,0.0,0.0,0.0
1576083042919270840,430,0,,0.0,0.0,0.0,0.0,0.0,0.0,0.0,0.0,0.0,0.0,0.0,0.0,0.0,0.002,-0.001,0.0,0.0,0.0,0.0,0.0,0.0,0.0,0.0,0.0,0.0,0.385,0.209,9.72,0.0,0.0,0.0,0.0,0.0,0.0,0.0,0.0,0.0
1576083042984669424,431,0,,0.0,0.0,0.0,0.0,0.0,0.0,0.0,0.0,0.0,0.0,0.0,0.0,0.0,0.001,-0.0,-0.0,0.0,0.0,0.0,0.0,0.0,0.0,0.0,0.0,0.0,0.336,0.241,9.71,0.0,0.0,0.0,0.0,0.0,0.0,0.0,0.0,0.0
1576083043075625954,432,0,,0.0,0.0,0.0,0.0,0.0,0.0,0.0,0.0,0.0,0.0,0.0,0.0,0.0,0.001,-0.0,0.0,0.0,0.0,0.0,0.0,0.0,0.0,0.0,0.0,0.0,0.28,0.164,9.71,0.0,0.0,0.0,0.0,0.0,0.0,0.0,0.0,0.0
1576083043124225663,433,0,,0.0,0.0,0.0,0.0,0.0,0.0,0.0,0.0,0.0,0.0,0.0,0.0,0.0,0.002,-0.001,-0.0,0.0,0.0,0.0,0.0,0.0,0.0,0.0,0.0,0.0,0.372,0.17,9.72,0.0,0.0,0.0,0.0,0.0,0.0,0.0,0.0,0.0
1576083043186514305,434,0,,0.0,0.0,0.0,0.0,0.0,0.0,0.0,0.0,0.0,0.0,0.0,0.0,0.0,0.002,-0.001,0.0,0.0,0.0,0.0,0.0,0.0,0.0,0.0,0.0,0.0,0.292,0.189,9.71,0.0,0.0,0.0,0.0,0.0,0.0,0.0,0.0,0.0
1576083043274258402,435,0,,0.0,0.0,0.0,0.0,0.0,0.0,0.0,0.0,0.0,0.0,0.0,0.0,0.0,0.002,-0.001,-0.0,0.0,0.0,0.0,0.0,0.0,0.0,0.0,0.0,0.0,0.29,0.225,9.7,0.0,0.0,0.0,0.0,0.0,0.0,0.0,0.0,0.0
1576083043323766342,436,0,,0.0,0.0,0.0,0.0,0.0,0.0,0.0,0.0,0.0,0.0,0.0,0.0,0.0,0.001,-0.001,-0.0,0.0,0.0,0.0,0.0,0.0,0.0,0.0,0.0,0.0,0.363,0.16,9.73,0.0,0.0,0.0,0.0,0.0,0.0,0.0,0.0,0.0
1576083043389729293,437,0,,0.0,0.0,0.0,0.0,0.0,0.0,0.0,0.0,0.0,0.0,0.0,0.0,0.0,0.001,-0.0,0.0,0.0,0.0,0.0,0.0,0.0,0.0,0.0,0.0,0.0,0.315,0.191,9.68,0.0,0.0,0.0,0.0,0.0,0.0,0.0,0.0,0.0
1576083043449518506,438,0,,0.0,0.0,0.0,0.0,0.0,0.0,0.0,0.0,0.0,0.0,0.0,0.0,0.0,0.002,0.0,-0.0,0.0,0.0,0.0,0.0,0.0,0.0,0.0,0.0,0.0,0.352,0.254,9.71,0.0,0.0,0.0,0.0,0.0,0.0,0.0,0.0,0.0
1576083043517100836,439,0,,0.0,0.0,0.0,0.0,0.0,0.0,0.0,0.0,0.0,0.0,0.0,0.0,0.0,0.001,-0.001,0.0,0.0,0.0,0.0,0.0,0.0,0.0,0.0,0.0,0.0,0.378,0.204,9.71,0.0,0.0,0.0,0.0,0.0,0.0,0.0,0.0,0.0
1576083043595015993,440,0,,0.0,0.0,0.0,0.0,0.0,0.0,0.0,0.0,0.0,0.0,0.0,0.0,0.0,-0.0,-0.0,-0.0,0.0,0.0,0.0,0.0,0.0,0.0,0.0,0.0,0.0,0.279,0.143,9.71,0.0,0.0,0.0,0.0,0.0,0.0,0.0,0.0,0.0
1576083043673323908,441,0,,0.0,0.0,0.0,0.0,0.0,0.0,0.0,0.0,0.0,0.0,0.0,0.0,0.0,0.001,-0.001,0.0,0.0,0.0,0.0,0.0,0.0,0.0,0.0,0.0,0.0,0.283,0.188,9.73,0.0,0.0,0.0,0.0,0.0,0.0,0.0,0.0,0.0
1576083043716498969,442,0,,0.0,0.0,0.0,0.0,0.0,0.0,0.0,0.0,0.0,0.0,0.0,0.0,0.0,0.0,-0.0,0.0,0.0,0.0,0.0,0.0,0.0,0.0,0.0,0.0,0.0,0.44,0.191,9.69,0.0,0.0,0.0,0.0,0.0,0.0,0.0,0.0,0.0
1576083043785018767,443,0,,0.0,0.0,0.0,0.0,0.0,0.0,0.0,0.0,0.0,0.0,0.0,0.0,0.0,0.001,0.001,-0.0,0.0,0.0,0.0,0.0,0.0,0.0,0.0,0.0,0.0,0.228,0.195,9.76,0.0,0.0,0.0,0.0,0.0,0.0,0.0,0.0,0.0
1576083043876096108,444,0,,0.0,0.0,0.0,0.0,0.0,0.0,0.0,0.0,0.0,0.0,0.0,0.0,0.0,0.0,-0.001,0.0,0.0,0.0,0.0,0.0,0.0,0.0,0.0,0.0,0.0,0.374,0.181,9.72,0.0,0.0,0.0,0.0,0.0,0.0,0.0,0.0,0.0
1576083043922298265,445,0,,0.0,0.0,0.0,0.0,0.0,0.0,0.0,0.0,0.0,0.0,0.0,0.0,0.0,0.001,-0.0,-0.0,0.0,0.0,0.0,0.0,0.0,0.0,0.0,0.0,0.0,0.384,0.222,9.75,0.0,0.0,0.0,0.0,0.0,0.0,0.0,0.0,0.0
1576083043985134152,446,0,,0.0,0.0,0.0,0.0,0.0,0.0,0.0,0.0,0.0,0.0,0.0,0.0,0.0,0.0,0.001,-0.0,0.0,0.0,0.0,0.0,0.0,0.0,0.0,0.0,0.0,0.24,0.228,9.71,0.0,0.0,0.0,0.0,0.0,0.0,0.0,0.0,0.0
1576083044072703231,447,0,,0.0,0.0,0.0,0.0,0.0,0.0,0.0,0.0,0.0,0.0,0.0,0.0,0.0,0.002,-0.001,0.0,0.0,0.0,0.0,0.0,0.0,0.0,0.0,0.0,0.0,0.375,0.187,9.72,0.0,0.0,0.0,0.0,0.0,0.0,0.0,0.0,0.0
1576083044120610296,448,0,,0.0,0.0,0.0,0.0,0.0,0.0,0.0,0.0,0.0,0.0,0.0,0.0,0.0,0.001,-0.001,-0.0,0.0,0.0,0.0,0.0,0.0,0.0,0.0,0.0,0.0,0.35,0.19,9.71,0.0,0.0,0.0,0.0,0.0,0.0,0.0,0.0,0.0
1576083044199031391,449,0,,0.0,0.0,0.0,0.0,0.0,0.0,0.0,0.0,0.0,0.0,0.0,0.0,0.0,0.001,0.0,0.0,0.0,0.0,0.0,0.0,0.0,0.0,0.0,0.0,0.0,0.263,0.215,9.71,0.0,0.0,0.0,0.0,0.0,0.0,0.0,0.0,0.0
1576083044289881582,450,0,,0.0,0.0,0.0,0.0,0.0,0.0,0.0,0.0,0.0,0.0,0.0,0.0,0.0,0.001,-0.001,-0.0,0.0,0.0,0.0,0.0,0.0,0.0,0.0,0.0,0.0,0.381,0.211,9.7,0.0,0.0,0.0,0.0,0.0,0.0,0.0,0.0,0.0
1576083044320541578,451,0,,0.0,0.0,0.0,0.0,0.0,0.0,0.0,0.0,0.0,0.0,0.0,0.0,0.0,0.001,-0.0,0.0,0.0,0.0,0.0,0.0,0.0,0.0,0.0,0.0,0.0,0.357,0.185,9.71,0.0,0.0,0.0,0.0,0.0,0.0,0.0,0.0,0.0
1576083044398512176,452,0,,0.0,0.0,0.0,0.0,0.0,0.0,0.0,0.0,0.0,0.0,0.0,0.0,0.0,0.001,-0.0,0.0,0.0,0.0,0.0,0.0,0.0,0.0,0.0,0.0,0.0,0.285,0.229,9.7,0.0,0.0,0.0,0.0,0.0,0.0,0.0,0.0,0.0
1576083044613334528,453,0,,0.0,0.0,0.0,0.0,0.0,0.0,0.0,0.0,0.0,0.0,0.0,0.0,0.0,0.001,-0.0,-0.0,0.0,0.0,0.0,0.0,0.0,0.0,0.0,0.0,0.0,0.294,0.187,9.71,0.0,0.0,0.0,0.0,0.0,0.0,0.0,0.0,0.0
1576083044614235595,454,0,,0.0,0.0,0.0,0.0,0.0,0.0,0.0,0.0,0.0,0.0,0.0,0.0,0.0,0.0,-0.0,-0.0,0.0,0.0,0.0,0.0,0.0,0.0,0.0,0.0,0.0,0.364,0.197,9.71,0.0,0.0,0.0,0.0,0.0,0.0,0.0,0.0,0.0
1576083044614277168,455,0,,0.0,0.0,0.0,0.0,0.0,0.0,0.0,0.0,0.0,0.0,0.0,0.0,0.0,0.001,0.0,0.0,0.0,0.0,0.0,0.0,0.0,0.0,0.0,0.0,0.0,0.344,0.229,9.7,0.0,0.0,0.0,0.0,0.0,0.0,0.0,0.0,0.0
1576083044673286095,456,0,,0.0,0.0,0.0,0.0,0.0,0.0,0.0,0.0,0.0,0.0,0.0,0.0,0.0,0.0,-0.0,-0.0,0.0,0.0,0.0,0.0,0.0,0.0,0.0,0.0,0.0,0.319,0.187,9.68,0.0,0.0,0.0,0.0,0.0,0.0,0.0,0.0,0.0
1576083044718815427,457,0,,0.0,0.0,0.0,0.0,0.0,0.0,0.0,0.0,0.0,0.0,0.0,0.0,0.0,0.001,-0.001,0.0,0.0,0.0,0.0,0.0,0.0,0.0,0.0,0.0,0.0,0.343,0.187,9.72,0.0,0.0,0.0,0.0,0.0,0.0,0.0,0.0,0.0
1576083044783230175,458,0,,0.0,0.0,0.0,0.0,0.0,0.0,0.0,0.0,0.0,0.0,0.0,0.0,0.0,0.001,-0.0,-0.0,0.0,0.0,0.0,0.0,0.0,0.0,0.0,0.0,0.0,0.312,0.193,9.69,0.0,0.0,0.0,0.0,0.0,0.0,0.0,0.0,0.0
1576083044871209515,459,0,,0.0,0.0,0.0,0.0,0.0,0.0,0.0,0.0,0.0,0.0,0.0,0.0,0.0,0.001,-0.0,0.0,0.0,0.0,0.0,0.0,0.0,0.0,0.0,0.0,0.0,0.309,0.204,9.71,0.0,0.0,0.0,0.0,0.0,0.0,0.0,0.0,0.0
1576083044920003192,460,0,,0.0,0.0,0.0,0.0,0.0,0.0,0.0,0.0,0.0,0.0,0.0,0.0,0.0,0.001,-0.0,-0.0,0.0,0.0,0.0,0.0,0.0,0.0,0.0,0.0,0.0,0.353,0.209,9.66,0.0,0.0,0.0,0.0,0.0,0.0,0.0,0.0,0.0
1576083044981503644,461,0,,0.0,0.0,0.0,0.0,0.0,0.0,0.0,0.0,0.0,0.0,0.0,0.0,0.0,0.0,-0.001,0.0,0.0,0.0,0.0,0.0,0.0,0.0,0.0,0.0,0.0,0.345,0.168,9.71,0.0,0.0,0.0,0.0,0.0,0.0,0.0,0.0,0.0
1576083045077071331,462,0,,0.0,0.0,0.0,0.0,0.0,0.0,0.0,0.0,0.0,0.0,0.0,0.0,0.0,0.002,0.0,0.0,0.0,0.0,0.0,0.0,0.0,0.0,0.0,0.0,0.0,0.33,0.211,9.69,0.0,0.0,0.0,0.0,0.0,0.0,0.0,0.0,0.0
1576083045128890660,463,0,,0.0,0.0,0.0,0.0,0.0,0.0,0.0,0.0,0.0,0.0,0.0,0.0,0.0,-0.0,-0.0,0.0,0.0,0.0,0.0,0.0,0.0,0.0,0.0,0.0,0.0,0.294,0.129,9.72,0.0,0.0,0.0,0.0,0.0,0.0,0.0,0.0,0.0
1576083045185100583,464,0,,0.0,0.0,0.0,0.0,0.0,0.0,0.0,0.0,0.0,0.0,0.0,0.0,0.0,0.002,-0.0,0.0,0.0,0.0,0.0,0.0,0.0,0.0,0.0,0.0,0.0,0.332,0.239,9.73,0.0,0.0,0.0,0.0,0.0,0.0,0.0,0.0,0.0
1576083045282135254,465,0,,0.0,0.0,0.0,0.0,0.0,0.0,0.0,0.0,0.0,0.0,0.0,0.0,0.0,0.001,-0.001,-0.0,0.0,0.0,0.0,0.0,0.0,0.0,0.0,0.0,0.0,0.356,0.21,9.71,0.0,0.0,0.0,0.0,0.0,0.0,0.0,0.0,0.0
1576083045329896220,466,0,,0.0,0.0,0.0,0.0,0.0,0.0,0.0,0.0,0.0,0.0,0.0,0.0,0.0,0.001,-0.0,0.0,0.0,0.0,0.0,0.0,0.0,0.0,0.0,0.0,0.0,0.339,0.204,9.71,0.0,0.0,0.0,0.0,0.0,0.0,0.0,0.0,0.0
1576083045403057889,467,0,,0.0,0.0,0.0,0.0,0.0,0.0,0.0,0.0,0.0,0.0,0.0,0.0,0.0,0.001,-0.0,-0.0,0.0,0.0,0.0,0.0,0.0,0.0,0.0,0.0,0.0,0.304,0.185,9.7,0.0,0.0,0.0,0.0,0.0,0.0,0.0,0.0,0.0
1576083045500346131,468,0,,0.0,0.0,0.0,0.0,0.0,0.0,0.0,0.0,0.0,0.0,0.0,0.0,0.0,0.002,0.0,0.0,0.0,0.0,0.0,0.0,0.0,0.0,0.0,0.0,0.0,0.319,0.202,9.65,0.0,0.0,0.0,0.0,0.0,0.0,0.0,0.0,0.0
1576083045522343124,469,0,,0.0,0.0,0.0,0.0,0.0,0.0,0.0,0.0,0.0,0.0,0.0,0.0,0.0,0.001,-0.001,-0.0,0.0,0.0,0.0,0.0,0.0,0.0,0.0,0.0,0.0,0.371,0.188,9.69,0.0,0.0,0.0,0.0,0.0,0.0,0.0,0.0,0.0
1576083045619865256,470,0,,0.0,0.0,0.0,0.0,0.0,0.0,0.0,0.0,0.0,0.0,0.0,0.0,0.0,0.001,0.0,-0.0,0.0,0.0,0.0,0.0,0.0,0.0,0.0,0.0,0.0,0.272,0.226,9.71,0.0,0.0,0.0,0.0,0.0,0.0,0.0,0.0,0.0
1576083045670726203,471,0,,0.0,0.0,0.0,0.0,0.0,0.0,0.0,0.0,0.0,0.0,0.0,0.0,0.0,0.0,-0.0,-0.0,0.0,0.0,0.0,0.0,0.0,0.0,0.0,0.0,0.0,0.365,0.151,9.71,0.0,0.0,0.0,0.0,0.0,0.0,0.0,0.0,0.0
1576083045720412840,472,0,,0.0,0.0,0.0,0.0,0.0,0.0,0.0,0.0,0.0,0.0,0.0,0.0,0.0,-0.0,-0.0,0.0,0.0,0.0,0.0,0.0,0.0,0.0,0.0,0.0,0.0,0.353,0.206,9.74,0.0,0.0,0.0,0.0,0.0,0.0,0.0,0.0,0.0
1576083045818563930,473,0,,0.0,0.0,0.0,0.0,0.0,0.0,0.0,0.0,0.0,0.0,0.0,0.0,0.0,0.0,-0.0,-0.0,0.0,0.0,0.0,0.0,0.0,0.0,0.0,0.0,0.0,0.313,0.201,9.72,0.0,0.0,0.0,0.0,0.0,0.0,0.0,0.0,0.0
1576083045913473670,474,0,,0.0,0.0,0.0,0.0,0.0,0.0,0.0,0.0,0.0,0.0,0.0,0.0,0.0,0.001,-0.001,0.0,0.0,0.0,0.0,0.0,0.0,0.0,0.0,0.0,0.0,0.312,0.203,9.74,0.0,0.0,0.0,0.0,0.0,0.0,0.0,0.0,0.0
1576083045913966040,475,0,,0.0,0.0,0.0,0.0,0.0,0.0,0.0,0.0,0.0,0.0,0.0,0.0,0.0,-0.0,-0.001,-0.0,0.0,0.0,0.0,0.0,0.0,0.0,0.0,0.0,0.0,0.366,0.181,9.69,0.0,0.0,0.0,0.0,0.0,0.0,0.0,0.0,0.0
1576083046008554167,476,0,,0.0,0.0,0.0,0.0,0.0,0.0,0.0,0.0,0.0,0.0,0.0,0.0,0.0,0.001,0.0,0.0,0.0,0.0,0.0,0.0,0.0,0.0,0.0,0.0,0.0,0.308,0.203,9.71,0.0,0.0,0.0,0.0,0.0,0.0,0.0,0.0,0.0
