%time,field.header.seq,field.header.stamp,field.header.frame_id,field.orientation.x,field.orientation.y,field.orientation.z,field.orientation.w,field.orientation_covariance0,field.orientation_covariance1,field.orientation_covariance2,field.orientation_covariance3,field.orientation_covariance4,field.orientation_covariance5,field.orientation_covariance6,field.orientation_covariance7,field.orientation_covariance8,field.angular_velocity.x,field.angular_velocity.y,field.angular_velocity.z,field.angular_velocity_covariance0,field.angular_velocity_covariance1,field.angular_velocity_covariance2,field.angular_velocity_covariance3,field.angular_velocity_covariance4,field.angular_velocity_covariance5,field.angular_velocity_covariance6,field.angular_velocity_covariance7,field.angular_velocity_covariance8,field.linear_acceleration.x,field.linear_acceleration.y,field.linear_acceleration.z,field.linear_acceleration_covariance0,field.linear_acceleration_covariance1,field.linear_acceleration_covariance2,field.linear_acceleration_covariance3,field.linear_acceleration_covariance4,field.linear_acceleration_covariance5,field.linear_acceleration_covariance6,field.linear_acceleration_covariance7,field.linear_acceleration_covariance8
1576083147224295422,1,0,,0.0,0.0,0.0,0.0,0.0,0.0,0.0,0.0,0.0,0.0,0.0,0.0,0.0,0.0,0.0,0.0,0.0,0.0,0.0,0.0,0.0,0.0,0.0,0.0,0.0,0.3,0.327,9.69,0.0,0.0,0.0,0.0,0.0,0.0,0.0,0.0,0.0
1576083147224353004,2,0,,0.0,0.0,0.0,0.0,0.0,0.0,0.0,0.0,0.0,0.0,0.0,0.0,0.0,-0.0,-0.001,-0.0,0.0,0.0,0.0,0.0,0.0,0.0,0.0,0.0,0.0,0.445,0.263,9.71,0.0,0.0,0.0,0.0,0.0,0.0,0.0,0.0,0.0
1576083148246358634,3,0,,0.0,0.0,0.0,0.0,0.0,0.0,0.0,0.0,0.0,0.0,0.0,0.0,0.0,-0.001,-0.001,0.0,0.0,0.0,0.0,0.0,0.0,0.0,0.0,0.0,0.0,0.25,0.042,9.7,0.0,0.0,0.0,0.0,0.0,0.0,0.0,0.0,0.0
1576083148248655516,4,0,,0.0,0.0,0.0,0.0,0.0,0.0,0.0,0.0,0.0,0.0,0.0,0.0,0.0,0.0,0.008,-0.07,0.0,0.0,0.0,0.0,0.0,0.0,0.0,0.0,0.0,-0.166,0.081,9.74,0.0,0.0,0.0,0.0,0.0,0.0,0.0,0.0,0.0
1576083148248704818,5,0,,0.0,0.0,0.0,0.0,0.0,0.0,0.0,0.0,0.0,0.0,0.0,0.0,0.0,-0.016,0.018,-0.15,0.0,0.0,0.0,0.0,0.0,0.0,0.0,0.0,0.0,0.04,-0.272,9.44,0.0,0.0,0.0,0.0,0.0,0.0,0.0,0.0,0.0
1576083148248872655,6,0,,0.0,0.0,0.0,0.0,0.0,0.0,0.0,0.0,0.0,0.0,0.0,0.0,0.0,0.003,0.011,-0.2,0.0,0.0,0.0,0.0,0.0,0.0,0.0,0.0,0.0,0.061,-0.112,9.83,0.0,0.0,0.0,0.0,0.0,0.0,0.0,0.0,0.0
1576083148262371723,7,0,,0.0,0.0,0.0,0.0,0.0,0.0,0.0,0.0,0.0,0.0,0.0,0.0,0.0,0.0,0.005,-0.22,0.0,0.0,0.0,0.0,0.0,0.0,0.0,0.0,0.0,0.395,-0.105,9.7,0.0,0.0,0.0,0.0,0.0,0.0,0.0,0.0,0.0
1576083148317720221,8,0,,0.0,0.0,0.0,0.0,0.0,0.0,0.0,0.0,0.0,0.0,0.0,0.0,0.0,-0.004,0.007,-0.17,0.0,0.0,0.0,0.0,0.0,0.0,0.0,0.0,0.0,0.158,-0.203,9.66,0.0,0.0,0.0,0.0,0.0,0.0,0.0,0.0,0.0
1576083149062539127,9,0,,0.0,0.0,0.0,0.0,0.0,0.0,0.0,0.0,0.0,0.0,0.0,0.0,0.0,0.027,-0.003,0.03,0.0,0.0,0.0,0.0,0.0,0.0,0.0,0.0,0.0,0.232,0.955,9.68,0.0,0.0,0.0,0.0,0.0,0.0,0.0,0.0,0.0
1576083149126245061,10,0,,0.0,0.0,0.0,0.0,0.0,0.0,0.0,0.0,0.0,0.0,0.0,0.0,0.0,-0.009,0.002,-0.0,0.0,0.0,0.0,0.0,0.0,0.0,0.0,0.0,0.0,0.257,0.782,9.82,0.0,0.0,0.0,0.0,0.0,0.0,0.0,0.0,0.0
1576083149207738766,11,0,,0.0,0.0,0.0,0.0,0.0,0.0,0.0,0.0,0.0,0.0,0.0,0.0,0.0,0.016,-0.005,-0.0,0.0,0.0,0.0,0.0,0.0,0.0,0.0,0.0,0.0,0.354,0.972,9.84,0.0,0.0,0.0,0.0,0.0,0.0,0.0,0.0,0.0
1576083149257838492,12,0,,0.0,0.0,0.0,0.0,0.0,0.0,0.0,0.0,0.0,0.0,0.0,0.0,0.0,-0.008,-0.003,0.01,0.0,0.0,0.0,0.0,0.0,0.0,0.0,0.0,0.0,0.213,0.874,9.59,0.0,0.0,0.0,0.0,0.0,0.0,0.0,0.0,0.0
1576083149326354096,13,0,,0.0,0.0,0.0,0.0,0.0,0.0,0.0,0.0,0.0,0.0,0.0,0.0,0.0,0.019,-0.007,0.03,0.0,0.0,0.0,0.0,0.0,0.0,0.0,0.0,0.0,0.446,1.288,9.8,0.0,0.0,0.0,0.0,0.0,0.0,0.0,0.0,0.0
1576083149397590251,14,0,,0.0,0.0,0.0,0.0,0.0,0.0,0.0,0.0,0.0,0.0,0.0,0.0,0.0,-0.005,0.0,0.0,0.0,0.0,0.0,0.0,0.0,0.0,0.0,0.0,0.0,0.275,0.815,9.44,0.0,0.0,0.0,0.0,0.0,0.0,0.0,0.0,0.0
1576083149479843462,15,0,,0.0,0.0,0.0,0.0,0.0,0.0,0.0,0.0,0.0,0.0,0.0,0.0,0.0,0.001,-0.002,0.0,0.0,0.0,0.0,0.0,0.0,0.0,0.0,0.0,0.0,0.37,1.013,9.73,0.0,0.0,0.0,0.0,0.0,0.0,0.0,0.0,0.0
1576083150907370128,16,0,,0.0,0.0,0.0,0.0,0.0,0.0,0.0,0.0,0.0,0.0,0.0,0.0,0.0,-0.004,0.002,-0.01,0.0,0.0,0.0,0.0,0.0,0.0,0.0,0.0,0.0,0.231,0.454,9.73,0.0,0.0,0.0,0.0,0.0,0.0,0.0,0.0,0.0
1576083150908924723,17,0,,0.0,0.0,0.0,0.0,0.0,0.0,0.0,0.0,0.0,0.0,0.0,0.0,0.0,0.002,-0.0,0.0,0.0,0.0,0.0,0.0,0.0,0.0,0.0,0.0,0.0,0.258,0.293,9.71,0.0,0.0,0.0,0.0,0.0,0.0,0.0,0.0,0.0
1576083150909574852,18,0,,0.0,0.0,0.0,0.0,0.0,0.0,0.0,0.0,0.0,0.0,0.0,0.0,0.0,0.002,-0.001,0.0,0.0,0.0,0.0,0.0,0.0,0.0,0.0,0.0,0.0,0.318,0.298,9.72,0.0,0.0,0.0,0.0,0.0,0.0,0.0,0.0,0.0
1576083150909621268,19,0,,0.0,0.0,0.0,0.0,0.0,0.0,0.0,0.0,0.0,0.0,0.0,0.0,0.0,0.0,-0.0,0.0,0.0,0.0,0.0,0.0,0.0,0.0,0.0,0.0,0.0,0.31,0.277,9.69,0.0,0.0,0.0,0.0,0.0,0.0,0.0,0.0,0.0
1576083150910230865,20,0,,0.0,0.0,0.0,0.0,0.0,0.0,0.0,0.0,0.0,0.0,0.0,0.0,0.0,-0.001,0.0,-0.0,0.0,0.0,0.0,0.0,0.0,0.0,0.0,0.0,0.0,0.307,0.159,9.71,0.0,0.0,0.0,0.0,0.0,0.0,0.0,0.0,0.0
1576083150911049374,21,0,,0.0,0.0,0.0,0.0,0.0,0.0,0.0,0.0,0.0,0.0,0.0,0.0,0.0,0.002,-0.0,-0.0,0.0,0.0,0.0,0.0,0.0,0.0,0.0,0.0,0.0,0.343,0.321,9.73,0.0,0.0,0.0,0.0,0.0,0.0,0.0,0.0,0.0
1576083150911099555,22,0,,0.0,0.0,0.0,0.0,0.0,0.0,0.0,0.0,0.0,0.0,0.0,0.0,0.0,0.0,0.0,-0.0,0.0,0.0,0.0,0.0,0.0,0.0,0.0,0.0,0.0,0.319,0.311,9.7,0.0,0.0,0.0,0.0,0.0,0.0,0.0,0.0,0.0
1576083150911315139,23,0,,0.0,0.0,0.0,0.0,0.0,0.0,0.0,0.0,0.0,0.0,0.0,0.0,0.0,-0.0,-0.0,0.0,0.0,0.0,0.0,0.0,0.0,0.0,0.0,0.0,0.0,0.286,0.233,9.69,0.0,0.0,0.0,0.0,0.0,0.0,0.0,0.0,0.0
1576083150911337434,24,0,,0.0,0.0,0.0,0.0,0.0,0.0,0.0,0.0,0.0,0.0,0.0,0.0,0.0,0.001,-0.001,0.0,0.0,0.0,0.0,0.0,0.0,0.0,0.0,0.0,0.0,0.384,0.271,9.68,0.0,0.0,0.0,0.0,0.0,0.0,0.0,0.0,0.0
1576083150911369755,25,0,,0.0,0.0,0.0,0.0,0.0,0.0,0.0,0.0,0.0,0.0,0.0,0.0,0.0,0.0,-0.0,0.0,0.0,0.0,0.0,0.0,0.0,0.0,0.0,0.0,0.0,0.293,0.294,9.71,0.0,0.0,0.0,0.0,0.0,0.0,0.0,0.0,0.0
1576083150911376006,26,0,,0.0,0.0,0.0,0.0,0.0,0.0,0.0,0.0,0.0,0.0,0.0,0.0,0.0,0.001,-0.001,0.0,0.0,0.0,0.0,0.0,0.0,0.0,0.0,0.0,0.0,0.303,0.297,9.7,0.0,0.0,0.0,0.0,0.0,0.0,0.0,0.0,0.0
1576083151930471317,27,0,,0.0,0.0,0.0,0.0,0.0,0.0,0.0,0.0,0.0,0.0,0.0,0.0,0.0,0.0,-0.001,0.0,0.0,0.0,0.0,0.0,0.0,0.0,0.0,0.0,0.0,0.367,0.282,9.71,0.0,0.0,0.0,0.0,0.0,0.0,0.0,0.0,0.0
1576083151931555057,28,0,,0.0,0.0,0.0,0.0,0.0,0.0,0.0,0.0,0.0,0.0,0.0,0.0,0.0,0.001,0.001,-0.0,0.0,0.0,0.0,0.0,0.0,0.0,0.0,0.0,0.0,0.31,0.298,9.7,0.0,0.0,0.0,0.0,0.0,0.0,0.0,0.0,0.0
1576083151931562851,29,0,,0.0,0.0,0.0,0.0,0.0,0.0,0.0,0.0,0.0,0.0,0.0,0.0,0.0,0.0,-0.0,0.0,0.0,0.0,0.0,0.0,0.0,0.0,0.0,0.0,0.0,0.374,0.264,9.7,0.0,0.0,0.0,0.0,0.0,0.0,0.0,0.0,0.0
1576083152749752792,30,0,,0.0,0.0,0.0,0.0,0.0,0.0,0.0,0.0,0.0,0.0,0.0,0.0,0.0,0.016,-0.0,0.01,0.0,0.0,0.0,0.0,0.0,0.0,0.0,0.0,0.0,0.234,-0.415,9.44,0.0,0.0,0.0,0.0,0.0,0.0,0.0,0.0,0.0
1576083152749802976,31,0,,0.0,0.0,0.0,0.0,0.0,0.0,0.0,0.0,0.0,0.0,0.0,0.0,0.0,0.005,-0.005,0.01,0.0,0.0,0.0,0.0,0.0,0.0,0.0,0.0,0.0,0.283,-0.562,9.69,0.0,0.0,0.0,0.0,0.0,0.0,0.0,0.0,0.0
1576083152750776295,32,0,,0.0,0.0,0.0,0.0,0.0,0.0,0.0,0.0,0.0,0.0,0.0,0.0,0.0,0.032,-0.008,0.0,0.0,0.0,0.0,0.0,0.0,0.0,0.0,0.0,0.0,0.393,-0.164,9.45,0.0,0.0,0.0,0.0,0.0,0.0,0.0,0.0,0.0
1576083152750835734,33,0,,0.0,0.0,0.0,0.0,0.0,0.0,0.0,0.0,0.0,0.0,0.0,0.0,0.0,0.033,-0.01,0.01,0.0,0.0,0.0,0.0,0.0,0.0,0.0,0.0,0.0,0.936,-0.337,10.06,0.0,0.0,0.0,0.0,0.0,0.0,0.0,0.0,0.0
1576083152751626350,34,0,,0.0,0.0,0.0,0.0,0.0,0.0,0.0,0.0,0.0,0.0,0.0,0.0,0.0,0.102,0.026,-0.06,0.0,0.0,0.0,0.0,0.0,0.0,0.0,0.0,0.0,-0.664,2.201,8.36,0.0,0.0,0.0,0.0,0.0,0.0,0.0,0.0,0.0
1576083152751806917,35,0,,0.0,0.0,0.0,0.0,0.0,0.0,0.0,0.0,0.0,0.0,0.0,0.0,0.0,-0.046,-0.032,-0.1,0.0,0.0,0.0,0.0,0.0,0.0,0.0,0.0,0.0,0.99,0.41,11.0,0.0,0.0,0.0,0.0,0.0,0.0,0.0,0.0,0.0
1576083152751839342,36,0,,0.0,0.0,0.0,0.0,0.0,0.0,0.0,0.0,0.0,0.0,0.0,0.0,0.0,-0.117,0.046,0.01,0.0,0.0,0.0,0.0,0.0,0.0,0.0,0.0,0.0,-0.566,-1.286,9.11,0.0,0.0,0.0,0.0,0.0,0.0,0.0,0.0,0.0
1576083152751851666,37,0,,0.0,0.0,0.0,0.0,0.0,0.0,0.0,0.0,0.0,0.0,0.0,0.0,0.0,0.095,-0.031,0.01,0.0,0.0,0.0,0.0,0.0,0.0,0.0,0.0,0.0,0.911,1.752,9.44,0.0,0.0,0.0,0.0,0.0,0.0,0.0,0.0,0.0
1576083152752059538,38,0,,0.0,0.0,0.0,0.0,0.0,0.0,0.0,0.0,0.0,0.0,0.0,0.0,0.0,-0.055,0.016,-0.0,0.0,0.0,0.0,0.0,0.0,0.0,0.0,0.0,0.0,0.106,-0.268,9.28,0.0,0.0,0.0,0.0,0.0,0.0,0.0,0.0,0.0
1576083152752488734,39,0,,0.0,0.0,0.0,0.0,0.0,0.0,0.0,0.0,0.0,0.0,0.0,0.0,0.0,0.048,-0.004,-0.06,0.0,0.0,0.0,0.0,0.0,0.0,0.0,0.0,0.0,0.373,1.337,9.73,0.0,0.0,0.0,0.0,0.0,0.0,0.0,0.0,0.0
1576083152752867700,40,0,,0.0,0.0,0.0,0.0,0.0,0.0,0.0,0.0,0.0,0.0,0.0,0.0,0.0,-0.021,0.008,-0.1,0.0,0.0,0.0,0.0,0.0,0.0,0.0,0.0,0.0,0.218,0.549,9.36,0.0,0.0,0.0,0.0,0.0,0.0,0.0,0.0,0.0
1576083152788060636,41,0,,0.0,0.0,0.0,0.0,0.0,0.0,0.0,0.0,0.0,0.0,0.0,0.0,0.0,0.027,0.0,-0.1,0.0,0.0,0.0,0.0,0.0,0.0,0.0,0.0,0.0,0.153,1.691,9.62,0.0,0.0,0.0,0.0,0.0,0.0,0.0,0.0,0.0
1576083152856297648,42,0,,0.0,0.0,0.0,0.0,0.0,0.0,0.0,0.0,0.0,0.0,0.0,0.0,0.0,-0.007,-0.003,-0.12,0.0,0.0,0.0,0.0,0.0,0.0,0.0,0.0,0.0,0.454,1.409,9.76,0.0,0.0,0.0,0.0,0.0,0.0,0.0,0.0,0.0
1576083152924017601,43,0,,0.0,0.0,0.0,0.0,0.0,0.0,0.0,0.0,0.0,0.0,0.0,0.0,0.0,0.007,0.002,-0.12,0.0,0.0,0.0,0.0,0.0,0.0,0.0,0.0,0.0,0.418,1.671,9.67,0.0,0.0,0.0,0.0,0.0,0.0,0.0,0.0,0.0
1576083152990850185,44,0,,0.0,0.0,0.0,0.0,0.0,0.0,0.0,0.0,0.0,0.0,0.0,0.0,0.0,0.009,0.003,-0.1,0.0,0.0,0.0,0.0,0.0,0.0,0.0,0.0,0.0,0.204,2.097,9.67,0.0,0.0,0.0,0.0,0.0,0.0,0.0,0.0,0.0
1576083153062201674,45,0,,0.0,0.0,0.0,0.0,0.0,0.0,0.0,0.0,0.0,0.0,0.0,0.0,0.0,-0.014,-0.0,-0.02,0.0,0.0,0.0,0.0,0.0,0.0,0.0,0.0,0.0,0.367,1.664,9.69,0.0,0.0,0.0,0.0,0.0,0.0,0.0,0.0,0.0
1576083153116254077,46,0,,0.0,0.0,0.0,0.0,0.0,0.0,0.0,0.0,0.0,0.0,0.0,0.0,0.0,-0.002,0.002,0.04,0.0,0.0,0.0,0.0,0.0,0.0,0.0,0.0,0.0,0.252,1.793,9.7,0.0,0.0,0.0,0.0,0.0,0.0,0.0,0.0,0.0
1576083153182906083,47,0,,0.0,0.0,0.0,0.0,0.0,0.0,0.0,0.0,0.0,0.0,0.0,0.0,0.0,0.001,-0.002,0.0,0.0,0.0,0.0,0.0,0.0,0.0,0.0,0.0,0.0,0.404,1.875,9.71,0.0,0.0,0.0,0.0,0.0,0.0,0.0,0.0,0.0
1576083153248917134,48,0,,0.0,0.0,0.0,0.0,0.0,0.0,0.0,0.0,0.0,0.0,0.0,0.0,0.0,-0.004,0.004,0.04,0.0,0.0,0.0,0.0,0.0,0.0,0.0,0.0,0.0,0.455,1.723,9.73,0.0,0.0,0.0,0.0,0.0,0.0,0.0,0.0,0.0
1576083153316246144,49,0,,0.0,0.0,0.0,0.0,0.0,0.0,0.0,0.0,0.0,0.0,0.0,0.0,0.0,-0.009,0.002,0.03,0.0,0.0,0.0,0.0,0.0,0.0,0.0,0.0,0.0,0.522,1.723,9.38,0.0,0.0,0.0,0.0,0.0,0.0,0.0,0.0,0.0
1576083153389788313,50,0,,0.0,0.0,0.0,0.0,0.0,0.0,0.0,0.0,0.0,0.0,0.0,0.0,0.0,-0.03,0.012,-0.0,0.0,0.0,0.0,0.0,0.0,0.0,0.0,0.0,0.0,0.397,1.425,9.93,0.0,0.0,0.0,0.0,0.0,0.0,0.0,0.0,0.0
1576083153455351505,51,0,,0.0,0.0,0.0,0.0,0.0,0.0,0.0,0.0,0.0,0.0,0.0,0.0,0.0,-0.042,0.009,-0.05,0.0,0.0,0.0,0.0,0.0,0.0,0.0,0.0,0.0,-0.056,0.856,10.13,0.0,0.0,0.0,0.0,0.0,0.0,0.0,0.0,0.0
1576083153519032664,52,0,,0.0,0.0,0.0,0.0,0.0,0.0,0.0,0.0,0.0,0.0,0.0,0.0,0.0,-0.041,0.007,-0.06,0.0,0.0,0.0,0.0,0.0,0.0,0.0,0.0,0.0,0.51,0.401,9.01,0.0,0.0,0.0,0.0,0.0,0.0,0.0,0.0,0.0
1576083153593108551,53,0,,0.0,0.0,0.0,0.0,0.0,0.0,0.0,0.0,0.0,0.0,0.0,0.0,0.0,0.027,-0.023,-0.0,0.0,0.0,0.0,0.0,0.0,0.0,0.0,0.0,0.0,0.738,1.455,10.23,0.0,0.0,0.0,0.0,0.0,0.0,0.0,0.0,0.0
1576083153654073151,54,0,,0.0,0.0,0.0,0.0,0.0,0.0,0.0,0.0,0.0,0.0,0.0,0.0,0.0,0.038,0.021,-0.04,0.0,0.0,0.0,0.0,0.0,0.0,0.0,0.0,0.0,0.025,1.169,7.55,0.0,0.0,0.0,0.0,0.0,0.0,0.0,0.0,0.0
1576083153726249570,55,0,,0.0,0.0,0.0,0.0,0.0,0.0,0.0,0.0,0.0,0.0,0.0,0.0,0.0,-0.08,-0.002,-0.07,0.0,0.0,0.0,0.0,0.0,0.0,0.0,0.0,0.0,0.437,0.387,8.9,0.0,0.0,0.0,0.0,0.0,0.0,0.0,0.0,0.0
1576083153790806282,56,0,,0.0,0.0,0.0,0.0,0.0,0.0,0.0,0.0,0.0,0.0,0.0,0.0,0.0,-0.01,0.022,-0.1,0.0,0.0,0.0,0.0,0.0,0.0,0.0,0.0,0.0,-0.255,2.085,12.24,0.0,0.0,0.0,0.0,0.0,0.0,0.0,0.0,0.0
1576083153855362631,57,0,,0.0,0.0,0.0,0.0,0.0,0.0,0.0,0.0,0.0,0.0,0.0,0.0,0.0,-0.054,-0.009,-0.16,0.0,0.0,0.0,0.0,0.0,0.0,0.0,0.0,0.0,0.827,0.443,10.08,0.0,0.0,0.0,0.0,0.0,0.0,0.0,0.0,0.0
1576083153947586040,58,0,,0.0,0.0,0.0,0.0,0.0,0.0,0.0,0.0,0.0,0.0,0.0,0.0,0.0,-0.021,-0.0,-0.09,0.0,0.0,0.0,0.0,0.0,0.0,0.0,0.0,0.0,0.388,1.303,9.52,0.0,0.0,0.0,0.0,0.0,0.0,0.0,0.0,0.0
1576083154001519282,59,0,,0.0,0.0,0.0,0.0,0.0,0.0,0.0,0.0,0.0,0.0,0.0,0.0,0.0,-0.021,0.009,-0.0,0.0,0.0,0.0,0.0,0.0,0.0,0.0,0.0,0.0,-0.3,1.063,8.75,0.0,0.0,0.0,0.0,0.0,0.0,0.0,0.0,0.0
1576083154060323508,60,0,,0.0,0.0,0.0,0.0,0.0,0.0,0.0,0.0,0.0,0.0,0.0,0.0,0.0,-0.006,-0.01,-0.01,0.0,0.0,0.0,0.0,0.0,0.0,0.0,0.0,0.0,0.177,0.675,9.76,0.0,0.0,0.0,0.0,0.0,0.0,0.0,0.0,0.0
1576083154126114938,61,0,,0.0,0.0,0.0,0.0,0.0,0.0,0.0,0.0,0.0,0.0,0.0,0.0,0.0,0.004,-0.01,0.01,0.0,0.0,0.0,0.0,0.0,0.0,0.0,0.0,0.0,0.41,1.347,10.59,0.0,0.0,0.0,0.0,0.0,0.0,0.0,0.0,0.0
1576083154191171147,62,0,,0.0,0.0,0.0,0.0,0.0,0.0,0.0,0.0,0.0,0.0,0.0,0.0,0.0,0.005,0.006,0.0,0.0,0.0,0.0,0.0,0.0,0.0,0.0,0.0,0.0,0.643,0.652,8.52,0.0,0.0,0.0,0.0,0.0,0.0,0.0,0.0,0.0
1576083154275846207,63,0,,0.0,0.0,0.0,0.0,0.0,0.0,0.0,0.0,0.0,0.0,0.0,0.0,0.0,0.027,-0.005,0.08,0.0,0.0,0.0,0.0,0.0,0.0,0.0,0.0,0.0,0.231,0.792,9.43,0.0,0.0,0.0,0.0,0.0,0.0,0.0,0.0,0.0
1576083154318560940,64,0,,0.0,0.0,0.0,0.0,0.0,0.0,0.0,0.0,0.0,0.0,0.0,0.0,0.0,0.036,-0.02,0.03,0.0,0.0,0.0,0.0,0.0,0.0,0.0,0.0,0.0,0.239,0.415,10.54,0.0,0.0,0.0,0.0,0.0,0.0,0.0,0.0,0.0
1576083154387304746,65,0,,0.0,0.0,0.0,0.0,0.0,0.0,0.0,0.0,0.0,0.0,0.0,0.0,0.0,0.019,0.009,-0.0,0.0,0.0,0.0,0.0,0.0,0.0,0.0,0.0,0.0,0.318,0.221,9.4,0.0,0.0,0.0,0.0,0.0,0.0,0.0,0.0,0.0
1576083154453035700,66,0,,0.0,0.0,0.0,0.0,0.0,0.0,0.0,0.0,0.0,0.0,0.0,0.0,0.0,0.012,-0.013,-0.03,0.0,0.0,0.0,0.0,0.0,0.0,0.0,0.0,0.0,0.461,0.256,11.24,0.0,0.0,0.0,0.0,0.0,0.0,0.0,0.0,0.0
1576083154517398577,67,0,,0.0,0.0,0.0,0.0,0.0,0.0,0.0,0.0,0.0,0.0,0.0,0.0,0.0,0.041,0.003,-0.04,0.0,0.0,0.0,0.0,0.0,0.0,0.0,0.0,0.0,0.307,0.75,9.87,0.0,0.0,0.0,0.0,0.0,0.0,0.0,0.0,0.0
1576083154603190219,68,0,,0.0,0.0,0.0,0.0,0.0,0.0,0.0,0.0,0.0,0.0,0.0,0.0,0.0,-0.022,0.003,-0.0,0.0,0.0,0.0,0.0,0.0,0.0,0.0,0.0,0.0,0.251,-0.11,7.61,0.0,0.0,0.0,0.0,0.0,0.0,0.0,0.0,0.0
1576083154653114632,69,0,,0.0,0.0,0.0,0.0,0.0,0.0,0.0,0.0,0.0,0.0,0.0,0.0,0.0,-0.02,-0.004,-0.08,0.0,0.0,0.0,0.0,0.0,0.0,0.0,0.0,0.0,0.768,0.954,8.73,0.0,0.0,0.0,0.0,0.0,0.0,0.0,0.0,0.0
1576083154719807608,70,0,,0.0,0.0,0.0,0.0,0.0,0.0,0.0,0.0,0.0,0.0,0.0,0.0,0.0,-0.002,0.003,0.0,0.0,0.0,0.0,0.0,0.0,0.0,0.0,0.0,0.0,0.259,1.42,8.92,0.0,0.0,0.0,0.0,0.0,0.0,0.0,0.0,0.0
1576083154786511198,71,0,,0.0,0.0,0.0,0.0,0.0,0.0,0.0,0.0,0.0,0.0,0.0,0.0,0.0,-0.029,-0.025,-0.0,0.0,0.0,0.0,0.0,0.0,0.0,0.0,0.0,0.0,0.181,1.568,8.8,0.0,0.0,0.0,0.0,0.0,0.0,0.0,0.0,0.0
1576083154861919263,72,0,,0.0,0.0,0.0,0.0,0.0,0.0,0.0,0.0,0.0,0.0,0.0,0.0,0.0,-0.024,-0.003,-0.02,0.0,0.0,0.0,0.0,0.0,0.0,0.0,0.0,0.0,0.451,0.301,12.81,0.0,0.0,0.0,0.0,0.0,0.0,0.0,0.0,0.0
1576083154929996269,73,0,,0.0,0.0,0.0,0.0,0.0,0.0,0.0,0.0,0.0,0.0,0.0,0.0,0.0,0.002,-0.002,-0.02,0.0,0.0,0.0,0.0,0.0,0.0,0.0,0.0,0.0,0.362,0.359,9.67,0.0,0.0,0.0,0.0,0.0,0.0,0.0,0.0,0.0
1576083154990428483,74,0,,0.0,0.0,0.0,0.0,0.0,0.0,0.0,0.0,0.0,0.0,0.0,0.0,0.0,-0.017,-0.018,-0.0,0.0,0.0,0.0,0.0,0.0,0.0,0.0,0.0,0.0,1.034,1.173,10.67,0.0,0.0,0.0,0.0,0.0,0.0,0.0,0.0,0.0
1576083155058392362,75,0,,0.0,0.0,0.0,0.0,0.0,0.0,0.0,0.0,0.0,0.0,0.0,0.0,0.0,-0.007,0.002,0.0,0.0,0.0,0.0,0.0,0.0,0.0,0.0,0.0,0.0,-0.043,0.868,14.68,0.0,0.0,0.0,0.0,0.0,0.0,0.0,0.0,0.0
1576083155150128620,76,0,,0.0,0.0,0.0,0.0,0.0,0.0,0.0,0.0,0.0,0.0,0.0,0.0,0.0,0.007,0.001,0.01,0.0,0.0,0.0,0.0,0.0,0.0,0.0,0.0,0.0,-0.42,0.458,10.6,0.0,0.0,0.0,0.0,0.0,0.0,0.0,0.0,0.0
1576083155190456296,77,0,,0.0,0.0,0.0,0.0,0.0,0.0,0.0,0.0,0.0,0.0,0.0,0.0,0.0,-0.029,-0.016,-0.0,0.0,0.0,0.0,0.0,0.0,0.0,0.0,0.0,0.0,0.473,0.005,6.88,0.0,0.0,0.0,0.0,0.0,0.0,0.0,0.0,0.0
1576083155259848513,78,0,,0.0,0.0,0.0,0.0,0.0,0.0,0.0,0.0,0.0,0.0,0.0,0.0,0.0,-0.034,-0.015,-0.07,0.0,0.0,0.0,0.0,0.0,0.0,0.0,0.0,0.0,0.784,-0.138,11.36,0.0,0.0,0.0,0.0,0.0,0.0,0.0,0.0,0.0
1576083155325916571,79,0,,0.0,0.0,0.0,0.0,0.0,0.0,0.0,0.0,0.0,0.0,0.0,0.0,0.0,-0.052,0.015,-0.08,0.0,0.0,0.0,0.0,0.0,0.0,0.0,0.0,0.0,1.486,0.961,11.12,0.0,0.0,0.0,0.0,0.0,0.0,0.0,0.0,0.0
1576083155394537957,80,0,,0.0,0.0,0.0,0.0,0.0,0.0,0.0,0.0,0.0,0.0,0.0,0.0,0.0,-0.115,-0.104,-0.0,0.0,0.0,0.0,0.0,0.0,0.0,0.0,0.0,0.0,0.478,-0.714,6.64,0.0,0.0,0.0,0.0,0.0,0.0,0.0,0.0,0.0
1576083155473547070,81,0,,0.0,0.0,0.0,0.0,0.0,0.0,0.0,0.0,0.0,0.0,0.0,0.0,0.0,0.079,0.106,-0.06,0.0,0.0,0.0,0.0,0.0,0.0,0.0,0.0,0.0,0.163,1.767,10.84,0.0,0.0,0.0,0.0,0.0,0.0,0.0,0.0,0.0
1576083155525185050,82,0,,0.0,0.0,0.0,0.0,0.0,0.0,0.0,0.0,0.0,0.0,0.0,0.0,0.0,0.012,-0.073,-0.04,0.0,0.0,0.0,0.0,0.0,0.0,0.0,0.0,0.0,-0.071,0.166,9.89,0.0,0.0,0.0,0.0,0.0,0.0,0.0,0.0,0.0
1576083155588419405,83,0,,0.0,0.0,0.0,0.0,0.0,0.0,0.0,0.0,0.0,0.0,0.0,0.0,0.0,-0.056,0.042,0.1,0.0,0.0,0.0,0.0,0.0,0.0,0.0,0.0,0.0,-1.775,2.624,22.42,0.0,0.0,0.0,0.0,0.0,0.0,0.0,0.0,0.0
1576083155651352726,84,0,,0.0,0.0,0.0,0.0,0.0,0.0,0.0,0.0,0.0,0.0,0.0,0.0,0.0,-0.152,-1.235,0.3,0.0,0.0,0.0,0.0,0.0,0.0,0.0,0.0,0.0,0.078,-0.949,9.06,0.0,0.0,0.0,0.0,0.0,0.0,0.0,0.0,0.0
1576083155720676751,85,0,,0.0,0.0,0.0,0.0,0.0,0.0,0.0,0.0,0.0,0.0,0.0,0.0,0.0,-0.091,1.251,0.03,0.0,0.0,0.0,0.0,0.0,0.0,0.0,0.0,0.0,0.935,0.118,15.35,0.0,0.0,0.0,0.0,0.0,0.0,0.0,0.0,0.0
1576083155799948248,86,0,,0.0,0.0,0.0,0.0,0.0,0.0,0.0,0.0,0.0,0.0,0.0,0.0,0.0,-0.018,-0.063,0.1,0.0,0.0,0.0,0.0,0.0,0.0,0.0,0.0,0.0,-0.078,-0.427,7.27,0.0,0.0,0.0,0.0,0.0,0.0,0.0,0.0,0.0
1576083155899232593,87,0,,0.0,0.0,0.0,0.0,0.0,0.0,0.0,0.0,0.0,0.0,0.0,0.0,0.0,-0.038,0.056,0.13,0.0,0.0,0.0,0.0,0.0,0.0,0.0,0.0,0.0,0.15,-0.942,12.91,0.0,0.0,0.0,0.0,0.0,0.0,0.0,0.0,0.0
1576083155916503444,88,0,,0.0,0.0,0.0,0.0,0.0,0.0,0.0,0.0,0.0,0.0,0.0,0.0,0.0,0.065,0.012,0.05,0.0,0.0,0.0,0.0,0.0,0.0,0.0,0.0,0.0,0.515,0.698,9.03,0.0,0.0,0.0,0.0,0.0,0.0,0.0,0.0,0.0
1576083155989834972,89,0,,0.0,0.0,0.0,0.0,0.0,0.0,0.0,0.0,0.0,0.0,0.0,0.0,0.0,0.028,-0.015,-0.0,0.0,0.0,0.0,0.0,0.0,0.0,0.0,0.0,0.0,0.875,-0.029,14.13,0.0,0.0,0.0,0.0,0.0,0.0,0.0,0.0,0.0
1576083156053955069,90,0,,0.0,0.0,0.0,0.0,0.0,0.0,0.0,0.0,0.0,0.0,0.0,0.0,0.0,0.001,0.026,-0.02,0.0,0.0,0.0,0.0,0.0,0.0,0.0,0.0,0.0,0.374,0.656,9.35,0.0,0.0,0.0,0.0,0.0,0.0,0.0,0.0,0.0
1576083156128753753,91,0,,0.0,0.0,0.0,0.0,0.0,0.0,0.0,0.0,0.0,0.0,0.0,0.0,0.0,0.01,0.006,-0.03,0.0,0.0,0.0,0.0,0.0,0.0,0.0,0.0,0.0,0.054,-0.293,12.76,0.0,0.0,0.0,0.0,0.0,0.0,0.0,0.0,0.0
1576083156189156454,92,0,,0.0,0.0,0.0,0.0,0.0,0.0,0.0,0.0,0.0,0.0,0.0,0.0,0.0,0.003,-0.001,-0.0,0.0,0.0,0.0,0.0,0.0,0.0,0.0,0.0,0.0,0.286,0.053,9.06,0.0,0.0,0.0,0.0,0.0,0.0,0.0,0.0,0.0
1576083156260161504,93,0,,0.0,0.0,0.0,0.0,0.0,0.0,0.0,0.0,0.0,0.0,0.0,0.0,0.0,0.022,-0.006,-0.12,0.0,0.0,0.0,0.0,0.0,0.0,0.0,0.0,0.0,0.17,-0.077,8.66,0.0,0.0,0.0,0.0,0.0,0.0,0.0,0.0,0.0
1576083156324723062,94,0,,0.0,0.0,0.0,0.0,0.0,0.0,0.0,0.0,0.0,0.0,0.0,0.0,0.0,0.018,-0.005,-0.13,0.0,0.0,0.0,0.0,0.0,0.0,0.0,0.0,0.0,0.093,-0.198,7.09,0.0,0.0,0.0,0.0,0.0,0.0,0.0,0.0,0.0
1576083156392246136,95,0,,0.0,0.0,0.0,0.0,0.0,0.0,0.0,0.0,0.0,0.0,0.0,0.0,0.0,0.007,0.017,-0.0,0.0,0.0,0.0,0.0,0.0,0.0,0.0,0.0,0.0,0.019,0.1,11.26,0.0,0.0,0.0,0.0,0.0,0.0,0.0,0.0,0.0
1576083156458751170,96,0,,0.0,0.0,0.0,0.0,0.0,0.0,0.0,0.0,0.0,0.0,0.0,0.0,0.0,0.031,-0.009,-0.01,0.0,0.0,0.0,0.0,0.0,0.0,0.0,0.0,0.0,0.522,0.761,11.38,0.0,0.0,0.0,0.0,0.0,0.0,0.0,0.0,0.0
1576083156529810775,97,0,,0.0,0.0,0.0,0.0,0.0,0.0,0.0,0.0,0.0,0.0,0.0,0.0,0.0,-0.032,0.004,0.0,0.0,0.0,0.0,0.0,0.0,0.0,0.0,0.0,0.0,0.283,-0.193,6.82,0.0,0.0,0.0,0.0,0.0,0.0,0.0,0.0,0.0
1576083156592726325,98,0,,0.0,0.0,0.0,0.0,0.0,0.0,0.0,0.0,0.0,0.0,0.0,0.0,0.0,0.01,-0.002,0.0,0.0,0.0,0.0,0.0,0.0,0.0,0.0,0.0,0.0,-0.253,-0.125,10.8,0.0,0.0,0.0,0.0,0.0,0.0,0.0,0.0,0.0
1576083156681722734,99,0,,0.0,0.0,0.0,0.0,0.0,0.0,0.0,0.0,0.0,0.0,0.0,0.0,0.0,-0.002,-0.013,0.0,0.0,0.0,0.0,0.0,0.0,0.0,0.0,0.0,0.0,0.754,0.015,12.83,0.0,0.0,0.0,0.0,0.0,0.0,0.0,0.0,0.0
1576083156726129981,100,0,,0.0,0.0,0.0,0.0,0.0,0.0,0.0,0.0,0.0,0.0,0.0,0.0,0.0,-0.002,-0.003,0.04,0.0,0.0,0.0,0.0,0.0,0.0,0.0,0.0,0.0,-0.062,0.04,11.47,0.0,0.0,0.0,0.0,0.0,0.0,0.0,0.0,0.0
1576083156789163612,101,0,,0.0,0.0,0.0,0.0,0.0,0.0,0.0,0.0,0.0,0.0,0.0,0.0,0.0,0.033,-0.006,0.0,0.0,0.0,0.0,0.0,0.0,0.0,0.0,0.0,0.0,0.274,0.167,8.85,0.0,0.0,0.0,0.0,0.0,0.0,0.0,0.0,0.0
1576083156849487620,102,0,,0.0,0.0,0.0,0.0,0.0,0.0,0.0,0.0,0.0,0.0,0.0,0.0,0.0,-0.003,0.002,-0.02,0.0,0.0,0.0,0.0,0.0,0.0,0.0,0.0,0.0,-0.001,-0.404,9.9,0.0,0.0,0.0,0.0,0.0,0.0,0.0,0.0,0.0
1576083156917380749,103,0,,0.0,0.0,0.0,0.0,0.0,0.0,0.0,0.0,0.0,0.0,0.0,0.0,0.0,0.012,-0.014,-0.06,0.0,0.0,0.0,0.0,0.0,0.0,0.0,0.0,0.0,0.377,0.733,6.83,0.0,0.0,0.0,0.0,0.0,0.0,0.0,0.0,0.0
1576083157005423237,104,0,,0.0,0.0,0.0,0.0,0.0,0.0,0.0,0.0,0.0,0.0,0.0,0.0,0.0,-0.026,-0.013,-0.09,0.0,0.0,0.0,0.0,0.0,0.0,0.0,0.0,0.0,-0.68,-0.853,12.38,0.0,0.0,0.0,0.0,0.0,0.0,0.0,0.0,0.0
1576083157049862735,105,0,,0.0,0.0,0.0,0.0,0.0,0.0,0.0,0.0,0.0,0.0,0.0,0.0,0.0,-0.051,-0.01,-0.14,0.0,0.0,0.0,0.0,0.0,0.0,0.0,0.0,0.0,1.058,-0.154,7.68,0.0,0.0,0.0,0.0,0.0,0.0,0.0,0.0,0.0
1576083157116909436,106,0,,0.0,0.0,0.0,0.0,0.0,0.0,0.0,0.0,0.0,0.0,0.0,0.0,0.0,-0.002,0.038,-0.19,0.0,0.0,0.0,0.0,0.0,0.0,0.0,0.0,0.0,-3.153,-1.187,8.23,0.0,0.0,0.0,0.0,0.0,0.0,0.0,0.0,0.0
1576083157185889086,107,0,,0.0,0.0,0.0,0.0,0.0,0.0,0.0,0.0,0.0,0.0,0.0,0.0,0.0,0.038,-0.036,-0.1,0.0,0.0,0.0,0.0,0.0,0.0,0.0,0.0,0.0,0.709,0.521,9.93,0.0,0.0,0.0,0.0,0.0,0.0,0.0,0.0,0.0
1576083157254484671,108,0,,0.0,0.0,0.0,0.0,0.0,0.0,0.0,0.0,0.0,0.0,0.0,0.0,0.0,-0.072,-0.022,0.0,0.0,0.0,0.0,0.0,0.0,0.0,0.0,0.0,0.0,0.866,-0.367,10.29,0.0,0.0,0.0,0.0,0.0,0.0,0.0,0.0,0.0
1576083157330654897,109,0,,0.0,0.0,0.0,0.0,0.0,0.0,0.0,0.0,0.0,0.0,0.0,0.0,0.0,0.021,0.041,0.01,0.0,0.0,0.0,0.0,0.0,0.0,0.0,0.0,0.0,-0.907,2.43,15.09,0.0,0.0,0.0,0.0,0.0,0.0,0.0,0.0,0.0
1576083157387672663,110,0,,0.0,0.0,0.0,0.0,0.0,0.0,0.0,0.0,0.0,0.0,0.0,0.0,0.0,-0.079,0.002,-0.0,0.0,0.0,0.0,0.0,0.0,0.0,0.0,0.0,0.0,0.975,-0.885,14.01,0.0,0.0,0.0,0.0,0.0,0.0,0.0,0.0,0.0
1576083157457622774,111,0,,0.0,0.0,0.0,0.0,0.0,0.0,0.0,0.0,0.0,0.0,0.0,0.0,0.0,0.023,-0.004,-0.02,0.0,0.0,0.0,0.0,0.0,0.0,0.0,0.0,0.0,-0.036,0.561,5.49,0.0,0.0,0.0,0.0,0.0,0.0,0.0,0.0,0.0
1576083157520387847,112,0,,0.0,0.0,0.0,0.0,0.0,0.0,0.0,0.0,0.0,0.0,0.0,0.0,0.0,0.063,-0.002,-0.01,0.0,0.0,0.0,0.0,0.0,0.0,0.0,0.0,0.0,0.012,0.567,9.26,0.0,0.0,0.0,0.0,0.0,0.0,0.0,0.0,0.0
1576083157590202813,113,0,,0.0,0.0,0.0,0.0,0.0,0.0,0.0,0.0,0.0,0.0,0.0,0.0,0.0,-0.015,-0.009,0.0,0.0,0.0,0.0,0.0,0.0,0.0,0.0,0.0,0.0,0.346,0.288,11.73,0.0,0.0,0.0,0.0,0.0,0.0,0.0,0.0,0.0
1576083157660823233,114,0,,0.0,0.0,0.0,0.0,0.0,0.0,0.0,0.0,0.0,0.0,0.0,0.0,0.0,0.072,-0.015,0.03,0.0,0.0,0.0,0.0,0.0,0.0,0.0,0.0,0.0,-0.206,1.032,12.28,0.0,0.0,0.0,0.0,0.0,0.0,0.0,0.0,0.0
1576083157723677698,115,0,,0.0,0.0,0.0,0.0,0.0,0.0,0.0,0.0,0.0,0.0,0.0,0.0,0.0,-0.058,0.028,0.0,0.0,0.0,0.0,0.0,0.0,0.0,0.0,0.0,0.0,0.143,-0.869,8.57,0.0,0.0,0.0,0.0,0.0,0.0,0.0,0.0,0.0
1576083157799051730,116,0,,0.0,0.0,0.0,0.0,0.0,0.0,0.0,0.0,0.0,0.0,0.0,0.0,0.0,0.071,-0.039,0.0,0.0,0.0,0.0,0.0,0.0,0.0,0.0,0.0,0.0,0.354,1.437,12.81,0.0,0.0,0.0,0.0,0.0,0.0,0.0,0.0,0.0
1576083157879489572,117,0,,0.0,0.0,0.0,0.0,0.0,0.0,0.0,0.0,0.0,0.0,0.0,0.0,0.0,-0.021,0.03,-0.02,0.0,0.0,0.0,0.0,0.0,0.0,0.0,0.0,0.0,0.569,0.205,8.56,0.0,0.0,0.0,0.0,0.0,0.0,0.0,0.0,0.0
1576083157924778873,118,0,,0.0,0.0,0.0,0.0,0.0,0.0,0.0,0.0,0.0,0.0,0.0,0.0,0.0,0.041,-0.007,-0.0,0.0,0.0,0.0,0.0,0.0,0.0,0.0,0.0,0.0,0.068,0.225,4.84,0.0,0.0,0.0,0.0,0.0,0.0,0.0,0.0,0.0
1576083157990261657,119,0,,0.0,0.0,0.0,0.0,0.0,0.0,0.0,0.0,0.0,0.0,0.0,0.0,0.0,-0.015,0.034,-0.0,0.0,0.0,0.0,0.0,0.0,0.0,0.0,0.0,0.0,-0.457,-0.6,7.57,0.0,0.0,0.0,0.0,0.0,0.0,0.0,0.0,0.0
1576083158048779989,120,0,,0.0,0.0,0.0,0.0,0.0,0.0,0.0,0.0,0.0,0.0,0.0,0.0,0.0,0.001,-0.04,-0.07,0.0,0.0,0.0,0.0,0.0,0.0,0.0,0.0,0.0,0.382,-0.4,5.79,0.0,0.0,0.0,0.0,0.0,0.0,0.0,0.0,0.0
1576083158120900426,121,0,,0.0,0.0,0.0,0.0,0.0,0.0,0.0,0.0,0.0,0.0,0.0,0.0,0.0,-0.009,0.021,-0.06,0.0,0.0,0.0,0.0,0.0,0.0,0.0,0.0,0.0,0.703,-0.065,10.94,0.0,0.0,0.0,0.0,0.0,0.0,0.0,0.0,0.0
1576083158210746875,122,0,,0.0,0.0,0.0,0.0,0.0,0.0,0.0,0.0,0.0,0.0,0.0,0.0,0.0,-0.007,0.005,-0.0,0.0,0.0,0.0,0.0,0.0,0.0,0.0,0.0,0.0,0.086,0.474,9.73,0.0,0.0,0.0,0.0,0.0,0.0,0.0,0.0,0.0
1576083158250808378,123,0,,0.0,0.0,0.0,0.0,0.0,0.0,0.0,0.0,0.0,0.0,0.0,0.0,0.0,-0.001,0.001,0.01,0.0,0.0,0.0,0.0,0.0,0.0,0.0,0.0,0.0,0.328,-0.629,9.61,0.0,0.0,0.0,0.0,0.0,0.0,0.0,0.0,0.0
1576083158320364392,124,0,,0.0,0.0,0.0,0.0,0.0,0.0,0.0,0.0,0.0,0.0,0.0,0.0,0.0,-0.01,0.002,0.01,0.0,0.0,0.0,0.0,0.0,0.0,0.0,0.0,0.0,0.546,-0.009,8.72,0.0,0.0,0.0,0.0,0.0,0.0,0.0,0.0,0.0
1576083158386813761,125,0,,0.0,0.0,0.0,0.0,0.0,0.0,0.0,0.0,0.0,0.0,0.0,0.0,0.0,-0.027,0.001,0.0,0.0,0.0,0.0,0.0,0.0,0.0,0.0,0.0,0.0,-0.113,0.775,10.08,0.0,0.0,0.0,0.0,0.0,0.0,0.0,0.0,0.0
1576083158452760167,126,0,,0.0,0.0,0.0,0.0,0.0,0.0,0.0,0.0,0.0,0.0,0.0,0.0,0.0,-0.083,-0.046,0.03,0.0,0.0,0.0,0.0,0.0,0.0,0.0,0.0,0.0,1.037,-2.074,15.96,0.0,0.0,0.0,0.0,0.0,0.0,0.0,0.0,0.0
1576083158538932111,127,0,,0.0,0.0,0.0,0.0,0.0,0.0,0.0,0.0,0.0,0.0,0.0,0.0,0.0,0.057,0.396,0.03,0.0,0.0,0.0,0.0,0.0,0.0,0.0,0.0,0.0,-2.833,-0.161,13.82,0.0,0.0,0.0,0.0,0.0,0.0,0.0,0.0,0.0
1576083158591703927,128,0,,0.0,0.0,0.0,0.0,0.0,0.0,0.0,0.0,0.0,0.0,0.0,0.0,0.0,0.092,-0.534,0.1,0.0,0.0,0.0,0.0,0.0,0.0,0.0,0.0,0.0,1.385,-0.112,9.48,0.0,0.0,0.0,0.0,0.0,0.0,0.0,0.0,0.0
1576083158653290187,129,0,,0.0,0.0,0.0,0.0,0.0,0.0,0.0,0.0,0.0,0.0,0.0,0.0,0.0,-0.051,0.097,-0.05,0.0,0.0,0.0,0.0,0.0,0.0,0.0,0.0,0.0,0.011,0.335,7.35,0.0,0.0,0.0,0.0,0.0,0.0,0.0,0.0,0.0
1576083158721064366,130,0,,0.0,0.0,0.0,0.0,0.0,0.0,0.0,0.0,0.0,0.0,0.0,0.0,0.0,0.02,-0.044,0.02,0.0,0.0,0.0,0.0,0.0,0.0,0.0,0.0,0.0,-0.076,0.999,9.31,0.0,0.0,0.0,0.0,0.0,0.0,0.0,0.0,0.0
1576083158795158866,131,0,,0.0,0.0,0.0,0.0,0.0,0.0,0.0,0.0,0.0,0.0,0.0,0.0,0.0,-0.079,-0.022,-0.0,0.0,0.0,0.0,0.0,0.0,0.0,0.0,0.0,0.0,0.871,0.238,9.14,0.0,0.0,0.0,0.0,0.0,0.0,0.0,0.0,0.0
1576083158863674016,132,0,,0.0,0.0,0.0,0.0,0.0,0.0,0.0,0.0,0.0,0.0,0.0,0.0,0.0,0.022,0.089,-0.07,0.0,0.0,0.0,0.0,0.0,0.0,0.0,0.0,0.0,-0.073,0.532,9.72,0.0,0.0,0.0,0.0,0.0,0.0,0.0,0.0,0.0
1576083158922451510,133,0,,0.0,0.0,0.0,0.0,0.0,0.0,0.0,0.0,0.0,0.0,0.0,0.0,0.0,0.016,-0.006,-0.02,0.0,0.0,0.0,0.0,0.0,0.0,0.0,0.0,0.0,0.22,-0.184,12.15,0.0,0.0,0.0,0.0,0.0,0.0,0.0,0.0,0.0
1576083158992053301,134,0,,0.0,0.0,0.0,0.0,0.0,0.0,0.0,0.0,0.0,0.0,0.0,0.0,0.0,0.012,-0.015,-0.0,0.0,0.0,0.0,0.0,0.0,0.0,0.0,0.0,0.0,0.994,0.453,12.3,0.0,0.0,0.0,0.0,0.0,0.0,0.0,0.0,0.0
1576083159081151835,135,0,,0.0,0.0,0.0,0.0,0.0,0.0,0.0,0.0,0.0,0.0,0.0,0.0,0.0,-0.009,0.005,-0.03,0.0,0.0,0.0,0.0,0.0,0.0,0.0,0.0,0.0,0.052,-0.52,9.05,0.0,0.0,0.0,0.0,0.0,0.0,0.0,0.0,0.0
1576083159124798105,136,0,,0.0,0.0,0.0,0.0,0.0,0.0,0.0,0.0,0.0,0.0,0.0,0.0,0.0,0.012,-0.012,-0.02,0.0,0.0,0.0,0.0,0.0,0.0,0.0,0.0,0.0,0.109,0.618,13.13,0.0,0.0,0.0,0.0,0.0,0.0,0.0,0.0,0.0
1576083159190084405,137,0,,0.0,0.0,0.0,0.0,0.0,0.0,0.0,0.0,0.0,0.0,0.0,0.0,0.0,-0.015,-0.013,-0.0,0.0,0.0,0.0,0.0,0.0,0.0,0.0,0.0,0.0,0.476,-0.583,9.49,0.0,0.0,0.0,0.0,0.0,0.0,0.0,0.0,0.0
1576083159248201099,138,0,,0.0,0.0,0.0,0.0,0.0,0.0,0.0,0.0,0.0,0.0,0.0,0.0,0.0,0.011,-0.003,-0.03,0.0,0.0,0.0,0.0,0.0,0.0,0.0,0.0,0.0,0.502,-0.039,10.59,0.0,0.0,0.0,0.0,0.0,0.0,0.0,0.0,0.0
1576083159319418522,139,0,,0.0,0.0,0.0,0.0,0.0,0.0,0.0,0.0,0.0,0.0,0.0,0.0,0.0,0.029,-0.014,-0.04,0.0,0.0,0.0,0.0,0.0,0.0,0.0,0.0,0.0,0.6,0.051,6.68,0.0,0.0,0.0,0.0,0.0,0.0,0.0,0.0,0.0
1576083159409441171,140,0,,0.0,0.0,0.0,0.0,0.0,0.0,0.0,0.0,0.0,0.0,0.0,0.0,0.0,0.005,0.003,-0.0,0.0,0.0,0.0,0.0,0.0,0.0,0.0,0.0,0.0,0.813,0.08,9.29,0.0,0.0,0.0,0.0,0.0,0.0,0.0,0.0,0.0
1576083159449783893,141,0,,0.0,0.0,0.0,0.0,0.0,0.0,0.0,0.0,0.0,0.0,0.0,0.0,0.0,0.028,-0.026,-0.04,0.0,0.0,0.0,0.0,0.0,0.0,0.0,0.0,0.0,1.045,0.404,12.42,0.0,0.0,0.0,0.0,0.0,0.0,0.0,0.0,0.0
1576083159521711058,142,0,,0.0,0.0,0.0,0.0,0.0,0.0,0.0,0.0,0.0,0.0,0.0,0.0,0.0,-0.022,0.001,-0.1,0.0,0.0,0.0,0.0,0.0,0.0,0.0,0.0,0.0,-0.296,-0.222,9.65,0.0,0.0,0.0,0.0,0.0,0.0,0.0,0.0,0.0
1576083159588023159,143,0,,0.0,0.0,0.0,0.0,0.0,0.0,0.0,0.0,0.0,0.0,0.0,0.0,0.0,0.024,-0.001,-0.1,0.0,0.0,0.0,0.0,0.0,0.0,0.0,0.0,0.0,0.492,0.641,12.21,0.0,0.0,0.0,0.0,0.0,0.0,0.0,0.0,0.0
1576083159651976726,144,0,,0.0,0.0,0.0,0.0,0.0,0.0,0.0,0.0,0.0,0.0,0.0,0.0,0.0,0.012,-0.021,-0.1,0.0,0.0,0.0,0.0,0.0,0.0,0.0,0.0,0.0,0.489,0.724,9.11,0.0,0.0,0.0,0.0,0.0,0.0,0.0,0.0,0.0
1576083159737683133,145,0,,0.0,0.0,0.0,0.0,0.0,0.0,0.0,0.0,0.0,0.0,0.0,0.0,0.0,-0.015,-0.008,-0.11,0.0,0.0,0.0,0.0,0.0,0.0,0.0,0.0,0.0,0.474,0.438,10.92,0.0,0.0,0.0,0.0,0.0,0.0,0.0,0.0,0.0
1576083159787827867,146,0,,0.0,0.0,0.0,0.0,0.0,0.0,0.0,0.0,0.0,0.0,0.0,0.0,0.0,0.013,-0.011,-0.1,0.0,0.0,0.0,0.0,0.0,0.0,0.0,0.0,0.0,0.451,1.134,9.77,0.0,0.0,0.0,0.0,0.0,0.0,0.0,0.0,0.0
1576083159856569921,147,0,,0.0,0.0,0.0,0.0,0.0,0.0,0.0,0.0,0.0,0.0,0.0,0.0,0.0,0.051,0.25,-0.1,0.0,0.0,0.0,0.0,0.0,0.0,0.0,0.0,0.0,1.689,-1.558,10.44,0.0,0.0,0.0,0.0,0.0,0.0,0.0,0.0,0.0
1576083159921922611,148,0,,0.0,0.0,0.0,0.0,0.0,0.0,0.0,0.0,0.0,0.0,0.0,0.0,0.0,-0.058,-0.518,0.04,0.0,0.0,0.0,0.0,0.0,0.0,0.0,0.0,0.0,1.304,-0.72,12.39,0.0,0.0,0.0,0.0,0.0,0.0,0.0,0.0,0.0
1576083159987967310,149,0,,0.0,0.0,0.0,0.0,0.0,0.0,0.0,0.0,0.0,0.0,0.0,0.0,0.0,0.045,0.321,-0.0,0.0,0.0,0.0,0.0,0.0,0.0,0.0,0.0,0.0,1.513,2.09,18.72,0.0,0.0,0.0,0.0,0.0,0.0,0.0,0.0,0.0
1576083160067686397,150,0,,0.0,0.0,0.0,0.0,0.0,0.0,0.0,0.0,0.0,0.0,0.0,0.0,0.0,-0.03,0.096,0.01,0.0,0.0,0.0,0.0,0.0,0.0,0.0,0.0,0.0,0.25,-0.889,13.85,0.0,0.0,0.0,0.0,0.0,0.0,0.0,0.0,0.0
1576083160124534252,151,0,,0.0,0.0,0.0,0.0,0.0,0.0,0.0,0.0,0.0,0.0,0.0,0.0,0.0,0.006,-0.082,0.15,0.0,0.0,0.0,0.0,0.0,0.0,0.0,0.0,0.0,0.777,0.027,8.07,0.0,0.0,0.0,0.0,0.0,0.0,0.0,0.0,0.0
1576083160191075814,152,0,,0.0,0.0,0.0,0.0,0.0,0.0,0.0,0.0,0.0,0.0,0.0,0.0,0.0,0.01,-0.018,0.1,0.0,0.0,0.0,0.0,0.0,0.0,0.0,0.0,0.0,-0.347,0.803,12.53,0.0,0.0,0.0,0.0,0.0,0.0,0.0,0.0,0.0
1576083160260140613,153,0,,0.0,0.0,0.0,0.0,0.0,0.0,0.0,0.0,0.0,0.0,0.0,0.0,0.0,0.001,-0.015,-0.01,0.0,0.0,0.0,0.0,0.0,0.0,0.0,0.0,0.0,0.703,-0.038,9.57,0.0,0.0,0.0,0.0,0.0,0.0,0.0,0.0,0.0
1576083160330248401,154,0,,0.0,0.0,0.0,0.0,0.0,0.0,0.0,0.0,0.0,0.0,0.0,0.0,0.0,0.031,-0.012,-0.05,0.0,0.0,0.0,0.0,0.0,0.0,0.0,0.0,0.0,1.319,0.343,13.74,0.0,0.0,0.0,0.0,0.0,0.0,0.0,0.0,0.0
1576083160394446762,155,0,,0.0,0.0,0.0,0.0,0.0,0.0,0.0,0.0,0.0,0.0,0.0,0.0,0.0,-0.019,0.019,-0.0,0.0,0.0,0.0,0.0,0.0,0.0,0.0,0.0,0.0,0.404,0.354,12.21,0.0,0.0,0.0,0.0,0.0,0.0,0.0,0.0,0.0
1576083160461113128,156,0,,0.0,0.0,0.0,0.0,0.0,0.0,0.0,0.0,0.0,0.0,0.0,0.0,0.0,0.013,0.007,-0.02,0.0,0.0,0.0,0.0,0.0,0.0,0.0,0.0,0.0,0.801,0.903,11.82,0.0,0.0,0.0,0.0,0.0,0.0,0.0,0.0,0.0
1576083160518416441,157,0,,0.0,0.0,0.0,0.0,0.0,0.0,0.0,0.0,0.0,0.0,0.0,0.0,0.0,-0.028,-0.016,-0.0,0.0,0.0,0.0,0.0,0.0,0.0,0.0,0.0,0.0,0.691,0.38,13.46,0.0,0.0,0.0,0.0,0.0,0.0,0.0,0.0,0.0
1576083160585661576,158,0,,0.0,0.0,0.0,0.0,0.0,0.0,0.0,0.0,0.0,0.0,0.0,0.0,0.0,-0.001,0.001,-0.0,0.0,0.0,0.0,0.0,0.0,0.0,0.0,0.0,0.0,0.819,-0.2,12.86,0.0,0.0,0.0,0.0,0.0,0.0,0.0,0.0,0.0
1576083160653769032,159,0,,0.0,0.0,0.0,0.0,0.0,0.0,0.0,0.0,0.0,0.0,0.0,0.0,0.0,-0.002,0.025,-0.05,0.0,0.0,0.0,0.0,0.0,0.0,0.0,0.0,0.0,0.504,0.862,14.5,0.0,0.0,0.0,0.0,0.0,0.0,0.0,0.0,0.0
1576083160732721349,160,0,,0.0,0.0,0.0,0.0,0.0,0.0,0.0,0.0,0.0,0.0,0.0,0.0,0.0,-0.01,-0.009,-0.06,0.0,0.0,0.0,0.0,0.0,0.0,0.0,0.0,0.0,0.732,-0.623,9.5,0.0,0.0,0.0,0.0,0.0,0.0,0.0,0.0,0.0
1576083160790828527,161,0,,0.0,0.0,0.0,0.0,0.0,0.0,0.0,0.0,0.0,0.0,0.0,0.0,0.0,0.02,0.005,-0.0,0.0,0.0,0.0,0.0,0.0,0.0,0.0,0.0,0.0,0.276,0.372,8.23,0.0,0.0,0.0,0.0,0.0,0.0,0.0,0.0,0.0
1576083160859071940,162,0,,0.0,0.0,0.0,0.0,0.0,0.0,0.0,0.0,0.0,0.0,0.0,0.0,0.0,-0.031,0.014,0.0,0.0,0.0,0.0,0.0,0.0,0.0,0.0,0.0,0.0,0.147,-0.086,10.67,0.0,0.0,0.0,0.0,0.0,0.0,0.0,0.0,0.0
1576083160949196663,163,0,,0.0,0.0,0.0,0.0,0.0,0.0,0.0,0.0,0.0,0.0,0.0,0.0,0.0,0.018,-0.009,0.03,0.0,0.0,0.0,0.0,0.0,0.0,0.0,0.0,0.0,1.088,-0.3,9.83,0.0,0.0,0.0,0.0,0.0,0.0,0.0,0.0,0.0
1576083160991654521,164,0,,0.0,0.0,0.0,0.0,0.0,0.0,0.0,0.0,0.0,0.0,0.0,0.0,0.0,-0.012,0.001,0.0,0.0,0.0,0.0,0.0,0.0,0.0,0.0,0.0,0.0,0.203,-0.245,6.07,0.0,0.0,0.0,0.0,0.0,0.0,0.0,0.0,0.0
1576083161062582760,165,0,,0.0,0.0,0.0,0.0,0.0,0.0,0.0,0.0,0.0,0.0,0.0,0.0,0.0,0.006,0.007,0.1,0.0,0.0,0.0,0.0,0.0,0.0,0.0,0.0,0.0,-0.049,0.086,10.83,0.0,0.0,0.0,0.0,0.0,0.0,0.0,0.0,0.0
1576083161124441175,166,0,,0.0,0.0,0.0,0.0,0.0,0.0,0.0,0.0,0.0,0.0,0.0,0.0,0.0,0.017,0.001,0.08,0.0,0.0,0.0,0.0,0.0,0.0,0.0,0.0,0.0,0.618,0.653,11.96,0.0,0.0,0.0,0.0,0.0,0.0,0.0,0.0,0.0
1576083161192186737,167,0,,0.0,0.0,0.0,0.0,0.0,0.0,0.0,0.0,0.0,0.0,0.0,0.0,0.0,-0.018,-0.009,0.0,0.0,0.0,0.0,0.0,0.0,0.0,0.0,0.0,0.0,0.231,-0.369,6.86,0.0,0.0,0.0,0.0,0.0,0.0,0.0,0.0,0.0
1576083161272257915,168,0,,0.0,0.0,0.0,0.0,0.0,0.0,0.0,0.0,0.0,0.0,0.0,0.0,0.0,0.057,-0.009,0.06,0.0,0.0,0.0,0.0,0.0,0.0,0.0,0.0,0.0,0.849,0.702,11.99,0.0,0.0,0.0,0.0,0.0,0.0,0.0,0.0,0.0
1576083161327245204,169,0,,0.0,0.0,0.0,0.0,0.0,0.0,0.0,0.0,0.0,0.0,0.0,0.0,0.0,-0.038,-0.069,-0.08,0.0,0.0,0.0,0.0,0.0,0.0,0.0,0.0,0.0,0.831,-0.281,9.66,0.0,0.0,0.0,0.0,0.0,0.0,0.0,0.0,0.0
1576083161390646471,170,0,,0.0,0.0,0.0,0.0,0.0,0.0,0.0,0.0,0.0,0.0,0.0,0.0,0.0,-0.075,0.026,-0.0,0.0,0.0,0.0,0.0,0.0,0.0,0.0,0.0,0.0,1.035,0.052,12.36,0.0,0.0,0.0,0.0,0.0,0.0,0.0,0.0,0.0
1576083161458766332,171,0,,0.0,0.0,0.0,0.0,0.0,0.0,0.0,0.0,0.0,0.0,0.0,0.0,0.0,0.022,-0.01,0.08,0.0,0.0,0.0,0.0,0.0,0.0,0.0,0.0,0.0,-0.543,-0.192,10.71,0.0,0.0,0.0,0.0,0.0,0.0,0.0,0.0,0.0
1576083161525008114,172,0,,0.0,0.0,0.0,0.0,0.0,0.0,0.0,0.0,0.0,0.0,0.0,0.0,0.0,-0.041,-0.028,0.08,0.0,0.0,0.0,0.0,0.0,0.0,0.0,0.0,0.0,1.242,0.642,10.28,0.0,0.0,0.0,0.0,0.0,0.0,0.0,0.0,0.0
1576083161604619063,173,0,,0.0,0.0,0.0,0.0,0.0,0.0,0.0,0.0,0.0,0.0,0.0,0.0,0.0,0.064,-0.004,0.0,0.0,0.0,0.0,0.0,0.0,0.0,0.0,0.0,0.0,0.643,0.127,7.76,0.0,0.0,0.0,0.0,0.0,0.0,0.0,0.0,0.0
1576083161661655502,174,0,,0.0,0.0,0.0,0.0,0.0,0.0,0.0,0.0,0.0,0.0,0.0,0.0,0.0,0.003,0.027,0.11,0.0,0.0,0.0,0.0,0.0,0.0,0.0,0.0,0.0,0.466,0.256,11.39,0.0,0.0,0.0,0.0,0.0,0.0,0.0,0.0,0.0
1576083161718632067,175,0,,0.0,0.0,0.0,0.0,0.0,0.0,0.0,0.0,0.0,0.0,0.0,0.0,0.0,-0.027,0.029,0.2,0.0,0.0,0.0,0.0,0.0,0.0,0.0,0.0,0.0,0.113,-0.634,7.81,0.0,0.0,0.0,0.0,0.0,0.0,0.0,0.0,0.0
1576083161792092554,176,0,,0.0,0.0,0.0,0.0,0.0,0.0,0.0,0.0,0.0,0.0,0.0,0.0,0.0,0.07,-0.044,0.3,0.0,0.0,0.0,0.0,0.0,0.0,0.0,0.0,0.0,0.925,0.543,11.25,0.0,0.0,0.0,0.0,0.0,0.0,0.0,0.0,0.0
1576083161852802952,177,0,,0.0,0.0,0.0,0.0,0.0,0.0,0.0,0.0,0.0,0.0,0.0,0.0,0.0,-0.06,0.053,0.35,0.0,0.0,0.0,0.0,0.0,0.0,0.0,0.0,0.0,-0.292,-0.641,12.28,0.0,0.0,0.0,0.0,0.0,0.0,0.0,0.0,0.0
1576083161927559080,178,0,,0.0,0.0,0.0,0.0,0.0,0.0,0.0,0.0,0.0,0.0,0.0,0.0,0.0,0.054,-0.027,0.42,0.0,0.0,0.0,0.0,0.0,0.0,0.0,0.0,0.0,0.45,0.166,8.38,0.0,0.0,0.0,0.0,0.0,0.0,0.0,0.0,0.0
1576083161991833845,179,0,,0.0,0.0,0.0,0.0,0.0,0.0,0.0,0.0,0.0,0.0,0.0,0.0,0.0,-0.03,-0.007,0.46,0.0,0.0,0.0,0.0,0.0,0.0,0.0,0.0,0.0,-0.05,-0.883,8.62,0.0,0.0,0.0,0.0,0.0,0.0,0.0,0.0,0.0
1576083162053849510,180,0,,0.0,0.0,0.0,0.0,0.0,0.0,0.0,0.0,0.0,0.0,0.0,0.0,0.0,0.015,0.021,0.52,0.0,0.0,0.0,0.0,0.0,0.0,0.0,0.0,0.0,-0.46,-0.237,10.54,0.0,0.0,0.0,0.0,0.0,0.0,0.0,0.0,0.0
1576083162149663551,181,0,,0.0,0.0,0.0,0.0,0.0,0.0,0.0,0.0,0.0,0.0,0.0,0.0,0.0,-0.017,-0.011,0.56,0.0,0.0,0.0,0.0,0.0,0.0,0.0,0.0,0.0,-0.824,-0.634,8.5,0.0,0.0,0.0,0.0,0.0,0.0,0.0,0.0,0.0
1576083162190597056,182,0,,0.0,0.0,0.0,0.0,0.0,0.0,0.0,0.0,0.0,0.0,0.0,0.0,0.0,0.008,-0.004,0.4,0.0,0.0,0.0,0.0,0.0,0.0,0.0,0.0,0.0,-0.056,0.585,11.47,0.0,0.0,0.0,0.0,0.0,0.0,0.0,0.0,0.0
1576083162279253188,183,0,,0.0,0.0,0.0,0.0,0.0,0.0,0.0,0.0,0.0,0.0,0.0,0.0,0.0,0.019,-0.046,0.45,0.0,0.0,0.0,0.0,0.0,0.0,0.0,0.0,0.0,-0.136,0.036,7.09,0.0,0.0,0.0,0.0,0.0,0.0,0.0,0.0,0.0
1576083162323411881,184,0,,0.0,0.0,0.0,0.0,0.0,0.0,0.0,0.0,0.0,0.0,0.0,0.0,0.0,-0.019,0.038,0.44,0.0,0.0,0.0,0.0,0.0,0.0,0.0,0.0,0.0,0.343,-0.504,10.43,0.0,0.0,0.0,0.0,0.0,0.0,0.0,0.0,0.0
1576083162391957941,185,0,,0.0,0.0,0.0,0.0,0.0,0.0,0.0,0.0,0.0,0.0,0.0,0.0,0.0,0.014,0.015,0.4,0.0,0.0,0.0,0.0,0.0,0.0,0.0,0.0,0.0,0.421,-0.291,7.94,0.0,0.0,0.0,0.0,0.0,0.0,0.0,0.0,0.0
1576083162476165068,186,0,,0.0,0.0,0.0,0.0,0.0,0.0,0.0,0.0,0.0,0.0,0.0,0.0,0.0,0.009,-0.016,0.41,0.0,0.0,0.0,0.0,0.0,0.0,0.0,0.0,0.0,-0.418,-0.284,9.71,0.0,0.0,0.0,0.0,0.0,0.0,0.0,0.0,0.0
1576083162522476028,187,0,,0.0,0.0,0.0,0.0,0.0,0.0,0.0,0.0,0.0,0.0,0.0,0.0,0.0,-0.044,-0.002,0.36,0.0,0.0,0.0,0.0,0.0,0.0,0.0,0.0,0.0,0.785,-0.353,9.51,0.0,0.0,0.0,0.0,0.0,0.0,0.0,0.0,0.0
1576083162590580187,188,0,,0.0,0.0,0.0,0.0,0.0,0.0,0.0,0.0,0.0,0.0,0.0,0.0,0.0,-0.013,-0.002,0.3,0.0,0.0,0.0,0.0,0.0,0.0,0.0,0.0,0.0,-0.005,-0.064,7.66,0.0,0.0,0.0,0.0,0.0,0.0,0.0,0.0,0.0
1576083162664334551,189,0,,0.0,0.0,0.0,0.0,0.0,0.0,0.0,0.0,0.0,0.0,0.0,0.0,0.0,0.018,-0.152,0.43,0.0,0.0,0.0,0.0,0.0,0.0,0.0,0.0,0.0,-0.308,0.313,6.11,0.0,0.0,0.0,0.0,0.0,0.0,0.0,0.0,0.0
1576083162725578958,190,0,,0.0,0.0,0.0,0.0,0.0,0.0,0.0,0.0,0.0,0.0,0.0,0.0,0.0,-0.003,0.158,0.42,0.0,0.0,0.0,0.0,0.0,0.0,0.0,0.0,0.0,-0.858,-0.248,9.88,0.0,0.0,0.0,0.0,0.0,0.0,0.0,0.0,0.0
1576083162804842482,191,0,,0.0,0.0,0.0,0.0,0.0,0.0,0.0,0.0,0.0,0.0,0.0,0.0,0.0,-0.013,0.005,0.5,0.0,0.0,0.0,0.0,0.0,0.0,0.0,0.0,0.0,-0.19,-0.353,8.27,0.0,0.0,0.0,0.0,0.0,0.0,0.0,0.0,0.0
1576083162860576637,192,0,,0.0,0.0,0.0,0.0,0.0,0.0,0.0,0.0,0.0,0.0,0.0,0.0,0.0,-0.065,-0.167,0.43,0.0,0.0,0.0,0.0,0.0,0.0,0.0,0.0,0.0,0.791,-1.211,8.11,0.0,0.0,0.0,0.0,0.0,0.0,0.0,0.0,0.0
1576083162926654920,193,0,,0.0,0.0,0.0,0.0,0.0,0.0,0.0,0.0,0.0,0.0,0.0,0.0,0.0,-0.131,0.114,0.43,0.0,0.0,0.0,0.0,0.0,0.0,0.0,0.0,0.0,-0.902,-1.497,8.92,0.0,0.0,0.0,0.0,0.0,0.0,0.0,0.0,0.0
1576083162988771890,194,0,,0.0,0.0,0.0,0.0,0.0,0.0,0.0,0.0,0.0,0.0,0.0,0.0,0.0,0.072,-0.1,0.9,0.0,0.0,0.0,0.0,0.0,0.0,0.0,0.0,0.0,-0.218,0.292,5.68,0.0,0.0,0.0,0.0,0.0,0.0,0.0,0.0,0.0
1576083163052417408,195,0,,0.0,0.0,0.0,0.0,0.0,0.0,0.0,0.0,0.0,0.0,0.0,0.0,0.0,0.02,0.167,0.89,0.0,0.0,0.0,0.0,0.0,0.0,0.0,0.0,0.0,-0.276,-0.467,10.08,0.0,0.0,0.0,0.0,0.0,0.0,0.0,0.0,0.0
1576083163127748086,196,0,,0.0,0.0,0.0,0.0,0.0,0.0,0.0,0.0,0.0,0.0,0.0,0.0,0.0,0.105,-0.024,0.6,0.0,0.0,0.0,0.0,0.0,0.0,0.0,0.0,0.0,-0.821,1.298,14.76,0.0,0.0,0.0,0.0,0.0,0.0,0.0,0.0,0.0
1576083163190328677,197,0,,0.0,0.0,0.0,0.0,0.0,0.0,0.0,0.0,0.0,0.0,0.0,0.0,0.0,-0.024,-0.037,0.47,0.0,0.0,0.0,0.0,0.0,0.0,0.0,0.0,0.0,-0.326,-0.675,9.03,0.0,0.0,0.0,0.0,0.0,0.0,0.0,0.0,0.0
1576083163252988499,198,0,,0.0,0.0,0.0,0.0,0.0,0.0,0.0,0.0,0.0,0.0,0.0,0.0,0.0,-0.025,0.096,0.34,0.0,0.0,0.0,0.0,0.0,0.0,0.0,0.0,0.0,-0.761,-0.435,8.19,0.0,0.0,0.0,0.0,0.0,0.0,0.0,0.0,0.0
1576083163397894432,199,0,,0.0,0.0,0.0,0.0,0.0,0.0,0.0,0.0,0.0,0.0,0.0,0.0,0.0,0.108,-0.067,0.36,0.0,0.0,0.0,0.0,0.0,0.0,0.0,0.0,0.0,0.846,1.064,13.37,0.0,0.0,0.0,0.0,0.0,0.0,0.0,0.0,0.0
1576083163398420354,200,0,,0.0,0.0,0.0,0.0,0.0,0.0,0.0,0.0,0.0,0.0,0.0,0.0,0.0,-0.024,0.049,0.3,0.0,0.0,0.0,0.0,0.0,0.0,0.0,0.0,0.0,-0.477,-1.151,9.83,0.0,0.0,0.0,0.0,0.0,0.0,0.0,0.0,0.0
1576083163457568405,201,0,,0.0,0.0,0.0,0.0,0.0,0.0,0.0,0.0,0.0,0.0,0.0,0.0,0.0,0.054,0.174,0.37,0.0,0.0,0.0,0.0,0.0,0.0,0.0,0.0,0.0,-0.666,0.473,1.96,0.0,0.0,0.0,0.0,0.0,0.0,0.0,0.0,0.0
1576083163519293998,202,0,,0.0,0.0,0.0,0.0,0.0,0.0,0.0,0.0,0.0,0.0,0.0,0.0,0.0,-0.11,-0.185,0.28,0.0,0.0,0.0,0.0,0.0,0.0,0.0,0.0,0.0,-2.607,-2.221,12.9,0.0,0.0,0.0,0.0,0.0,0.0,0.0,0.0,0.0
1576083163590684926,203,0,,0.0,0.0,0.0,0.0,0.0,0.0,0.0,0.0,0.0,0.0,0.0,0.0,0.0,-0.055,-0.141,0.3,0.0,0.0,0.0,0.0,0.0,0.0,0.0,0.0,0.0,-0.469,-0.06,8.72,0.0,0.0,0.0,0.0,0.0,0.0,0.0,0.0,0.0
1576083163671514791,204,0,,0.0,0.0,0.0,0.0,0.0,0.0,0.0,0.0,0.0,0.0,0.0,0.0,0.0,0.197,0.054,0.37,0.0,0.0,0.0,0.0,0.0,0.0,0.0,0.0,0.0,-0.318,0.458,8.18,0.0,0.0,0.0,0.0,0.0,0.0,0.0,0.0,0.0
1576083163725269114,205,0,,0.0,0.0,0.0,0.0,0.0,0.0,0.0,0.0,0.0,0.0,0.0,0.0,0.0,0.001,0.009,0.28,0.0,0.0,0.0,0.0,0.0,0.0,0.0,0.0,0.0,-0.888,0.76,9.21,0.0,0.0,0.0,0.0,0.0,0.0,0.0,0.0,0.0
1576083163790267348,206,0,,0.0,0.0,0.0,0.0,0.0,0.0,0.0,0.0,0.0,0.0,0.0,0.0,0.0,-0.262,0.065,0.2,0.0,0.0,0.0,0.0,0.0,0.0,0.0,0.0,0.0,-0.798,-0.304,6.32,0.0,0.0,0.0,0.0,0.0,0.0,0.0,0.0,0.0
1576083163858999153,207,0,,0.0,0.0,0.0,0.0,0.0,0.0,0.0,0.0,0.0,0.0,0.0,0.0,0.0,-0.031,-0.031,0.92,0.0,0.0,0.0,0.0,0.0,0.0,0.0,0.0,0.0,-1.803,-2.467,8.57,0.0,0.0,0.0,0.0,0.0,0.0,0.0,0.0,0.0
1576083163925726035,208,0,,0.0,0.0,0.0,0.0,0.0,0.0,0.0,0.0,0.0,0.0,0.0,0.0,0.0,-0.111,-0.298,0.85,0.0,0.0,0.0,0.0,0.0,0.0,0.0,0.0,0.0,1.401,0.452,11.55,0.0,0.0,0.0,0.0,0.0,0.0,0.0,0.0,0.0
1576083164015209723,209,0,,0.0,0.0,0.0,0.0,0.0,0.0,0.0,0.0,0.0,0.0,0.0,0.0,0.0,0.271,0.076,0.5,0.0,0.0,0.0,0.0,0.0,0.0,0.0,0.0,0.0,-0.468,-0.613,5.92,0.0,0.0,0.0,0.0,0.0,0.0,0.0,0.0,0.0
1576083164111774027,210,0,,0.0,0.0,0.0,0.0,0.0,0.0,0.0,0.0,0.0,0.0,0.0,0.0,0.0,-0.152,-0.126,0.4,0.0,0.0,0.0,0.0,0.0,0.0,0.0,0.0,0.0,0.006,0.269,-1.74,0.0,0.0,0.0,0.0,0.0,0.0,0.0,0.0,0.0
1576083164222599307,211,0,,0.0,0.0,0.0,0.0,0.0,0.0,0.0,0.0,0.0,0.0,0.0,0.0,0.0,-0.476,-0.117,0.06,0.0,0.0,0.0,0.0,0.0,0.0,0.0,0.0,0.0,0.516,-0.317,1.25,0.0,0.0,0.0,0.0,0.0,0.0,0.0,0.0,0.0
1576083164298428934,212,0,,0.0,0.0,0.0,0.0,0.0,0.0,0.0,0.0,0.0,0.0,0.0,0.0,0.0,-0.049,0.006,-0.02,0.0,0.0,0.0,0.0,0.0,0.0,0.0,0.0,0.0,1.706,-1.219,11.1,0.0,0.0,0.0,0.0,0.0,0.0,0.0,0.0,0.0
1576083164629240812,213,0,,0.0,0.0,0.0,0.0,0.0,0.0,0.0,0.0,0.0,0.0,0.0,0.0,0.0,0.075,-0.007,0.08,0.0,0.0,0.0,0.0,0.0,0.0,0.0,0.0,0.0,-0.252,-0.222,7.82,0.0,0.0,0.0,0.0,0.0,0.0,0.0,0.0,0.0
1576083164629735896,214,0,,0.0,0.0,0.0,0.0,0.0,0.0,0.0,0.0,0.0,0.0,0.0,0.0,0.0,-0.041,0.025,0.23,0.0,0.0,0.0,0.0,0.0,0.0,0.0,0.0,0.0,0.39,0.183,6.55,0.0,0.0,0.0,0.0,0.0,0.0,0.0,0.0,0.0
1576083164630658260,215,0,,0.0,0.0,0.0,0.0,0.0,0.0,0.0,0.0,0.0,0.0,0.0,0.0,0.0,0.119,-0.047,0.38,0.0,0.0,0.0,0.0,0.0,0.0,0.0,0.0,0.0,-0.484,0.339,11.33,0.0,0.0,0.0,0.0,0.0,0.0,0.0,0.0,0.0
1576083164631032624,216,0,,0.0,0.0,0.0,0.0,0.0,0.0,0.0,0.0,0.0,0.0,0.0,0.0,0.0,0.096,0.048,0.45,0.0,0.0,0.0,0.0,0.0,0.0,0.0,0.0,0.0,0.006,-0.316,1.86,0.0,0.0,0.0,0.0,0.0,0.0,0.0,0.0,0.0
1576083164721983558,217,0,,0.0,0.0,0.0,0.0,0.0,0.0,0.0,0.0,0.0,0.0,0.0,0.0,0.0,-0.025,-0.085,0.44,0.0,0.0,0.0,0.0,0.0,0.0,0.0,0.0,0.0,-0.669,-1.85,9.0,0.0,0.0,0.0,0.0,0.0,0.0,0.0,0.0,0.0
1576083164764799699,218,0,,0.0,0.0,0.0,0.0,0.0,0.0,0.0,0.0,0.0,0.0,0.0,0.0,0.0,0.036,0.03,0.31,0.0,0.0,0.0,0.0,0.0,0.0,0.0,0.0,0.0,-1.102,0.273,6.27,0.0,0.0,0.0,0.0,0.0,0.0,0.0,0.0,0.0
1576083164837265898,219,0,,0.0,0.0,0.0,0.0,0.0,0.0,0.0,0.0,0.0,0.0,0.0,0.0,0.0,-0.055,-0.125,0.21,0.0,0.0,0.0,0.0,0.0,0.0,0.0,0.0,0.0,1.128,-0.582,10.12,0.0,0.0,0.0,0.0,0.0,0.0,0.0,0.0,0.0
1576083164898703773,220,0,,0.0,0.0,0.0,0.0,0.0,0.0,0.0,0.0,0.0,0.0,0.0,0.0,0.0,0.053,0.144,0.21,0.0,0.0,0.0,0.0,0.0,0.0,0.0,0.0,0.0,-0.391,0.148,3.99,0.0,0.0,0.0,0.0,0.0,0.0,0.0,0.0,0.0
1576083165241168931,221,0,,0.0,0.0,0.0,0.0,0.0,0.0,0.0,0.0,0.0,0.0,0.0,0.0,0.0,-0.062,-0.031,0.25,0.0,0.0,0.0,0.0,0.0,0.0,0.0,0.0,0.0,-1.401,-1.115,8.93,0.0,0.0,0.0,0.0,0.0,0.0,0.0,0.0,0.0
1576083165241770826,222,0,,0.0,0.0,0.0,0.0,0.0,0.0,0.0,0.0,0.0,0.0,0.0,0.0,0.0,-0.066,-0.043,0.3,0.0,0.0,0.0,0.0,0.0,0.0,0.0,0.0,0.0,-1.143,-1.033,13.87,0.0,0.0,0.0,0.0,0.0,0.0,0.0,0.0,0.0
1576083165242626292,223,0,,0.0,0.0,0.0,0.0,0.0,0.0,0.0,0.0,0.0,0.0,0.0,0.0,0.0,-0.04,-0.067,0.25,0.0,0.0,0.0,0.0,0.0,0.0,0.0,0.0,0.0,-0.283,-0.003,12.74,0.0,0.0,0.0,0.0,0.0,0.0,0.0,0.0,0.0
1576083165242666561,224,0,,0.0,0.0,0.0,0.0,0.0,0.0,0.0,0.0,0.0,0.0,0.0,0.0,0.0,-0.057,-0.006,0.25,0.0,0.0,0.0,0.0,0.0,0.0,0.0,0.0,0.0,-0.196,-2.158,9.85,0.0,0.0,0.0,0.0,0.0,0.0,0.0,0.0,0.0
1576083165243384235,225,0,,0.0,0.0,0.0,0.0,0.0,0.0,0.0,0.0,0.0,0.0,0.0,0.0,0.0,0.046,0.032,0.25,0.0,0.0,0.0,0.0,0.0,0.0,0.0,0.0,0.0,-1.215,0.561,8.95,0.0,0.0,0.0,0.0,0.0,0.0,0.0,0.0,0.0
1576083165375302089,226,0,,0.0,0.0,0.0,0.0,0.0,0.0,0.0,0.0,0.0,0.0,0.0,0.0,0.0,0.023,-0.136,0.18,0.0,0.0,0.0,0.0,0.0,0.0,0.0,0.0,0.0,0.397,0.173,8.22,0.0,0.0,0.0,0.0,0.0,0.0,0.0,0.0,0.0
1576083165433433097,227,0,,0.0,0.0,0.0,0.0,0.0,0.0,0.0,0.0,0.0,0.0,0.0,0.0,0.0,0.029,0.115,0.18,0.0,0.0,0.0,0.0,0.0,0.0,0.0,0.0,0.0,-1.654,-0.397,9.58,0.0,0.0,0.0,0.0,0.0,0.0,0.0,0.0,0.0
1576083165523678162,228,0,,0.0,0.0,0.0,0.0,0.0,0.0,0.0,0.0,0.0,0.0,0.0,0.0,0.0,0.092,-0.033,0.35,0.0,0.0,0.0,0.0,0.0,0.0,0.0,0.0,0.0,-1.109,-3.106,13.03,0.0,0.0,0.0,0.0,0.0,0.0,0.0,0.0,0.0
1576083165567059141,229,0,,0.0,0.0,0.0,0.0,0.0,0.0,0.0,0.0,0.0,0.0,0.0,0.0,0.0,0.083,-0.004,0.48,0.0,0.0,0.0,0.0,0.0,0.0,0.0,0.0,0.0,-3.341,1.714,12.11,0.0,0.0,0.0,0.0,0.0,0.0,0.0,0.0,0.0
1576083165713527646,230,0,,0.0,0.0,0.0,0.0,0.0,0.0,0.0,0.0,0.0,0.0,0.0,0.0,0.0,0.072,0.02,0.23,0.0,0.0,0.0,0.0,0.0,0.0,0.0,0.0,0.0,0.22,3.934,13.15,0.0,0.0,0.0,0.0,0.0,0.0,0.0,0.0,0.0
1576083165857282112,231,0,,0.0,0.0,0.0,0.0,0.0,0.0,0.0,0.0,0.0,0.0,0.0,0.0,0.0,0.015,-0.015,0.04,0.0,0.0,0.0,0.0,0.0,0.0,0.0,0.0,0.0,0.209,1.266,15.37,0.0,0.0,0.0,0.0,0.0,0.0,0.0,0.0,0.0
1576083165972570754,232,0,,0.0,0.0,0.0,0.0,0.0,0.0,0.0,0.0,0.0,0.0,0.0,0.0,0.0,-0.001,0.003,0.01,0.0,0.0,0.0,0.0,0.0,0.0,0.0,0.0,0.0,0.551,-0.058,15.02,0.0,0.0,0.0,0.0,0.0,0.0,0.0,0.0,0.0
1576083166051172595,233,0,,0.0,0.0,0.0,0.0,0.0,0.0,0.0,0.0,0.0,0.0,0.0,0.0,0.0,0.003,0.009,-0.03,0.0,0.0,0.0,0.0,0.0,0.0,0.0,0.0,0.0,0.635,0.633,5.99,0.0,0.0,0.0,0.0,0.0,0.0,0.0,0.0,0.0
1576083166129481480,234,0,,0.0,0.0,0.0,0.0,0.0,0.0,0.0,0.0,0.0,0.0,0.0,0.0,0.0,-0.014,0.0,-0.08,0.0,0.0,0.0,0.0,0.0,0.0,0.0,0.0,0.0,0.379,0.018,10.11,0.0,0.0,0.0,0.0,0.0,0.0,0.0,0.0,0.0
1576083166187665641,235,0,,0.0,0.0,0.0,0.0,0.0,0.0,0.0,0.0,0.0,0.0,0.0,0.0,0.0,0.015,-0.008,-0.08,0.0,0.0,0.0,0.0,0.0,0.0,0.0,0.0,0.0,0.183,0.333,11.54,0.0,0.0,0.0,0.0,0.0,0.0,0.0,0.0,0.0
1576083166240455297,236,0,,0.0,0.0,0.0,0.0,0.0,0.0,0.0,0.0,0.0,0.0,0.0,0.0,0.0,0.013,-0.001,-0.02,0.0,0.0,0.0,0.0,0.0,0.0,0.0,0.0,0.0,-0.445,-0.027,5.07,0.0,0.0,0.0,0.0,0.0,0.0,0.0,0.0,0.0
1576083166295989594,237,0,,0.0,0.0,0.0,0.0,0.0,0.0,0.0,0.0,0.0,0.0,0.0,0.0,0.0,-0.0,0.005,0.02,0.0,0.0,0.0,0.0,0.0,0.0,0.0,0.0,0.0,-0.896,0.169,8.82,0.0,0.0,0.0,0.0,0.0,0.0,0.0,0.0,0.0
1576083166375210073,238,0,,0.0,0.0,0.0,0.0,0.0,0.0,0.0,0.0,0.0,0.0,0.0,0.0,0.0,0.002,-0.013,0.05,0.0,0.0,0.0,0.0,0.0,0.0,0.0,0.0,0.0,-0.136,0.009,7.41,0.0,0.0,0.0,0.0,0.0,0.0,0.0,0.0,0.0
1576083166432157883,239,0,,0.0,0.0,0.0,0.0,0.0,0.0,0.0,0.0,0.0,0.0,0.0,0.0,0.0,-0.012,-0.006,0.06,0.0,0.0,0.0,0.0,0.0,0.0,0.0,0.0,0.0,-1.639,-0.266,11.17,0.0,0.0,0.0,0.0,0.0,0.0,0.0,0.0,0.0
1576083166513071946,240,0,,0.0,0.0,0.0,0.0,0.0,0.0,0.0,0.0,0.0,0.0,0.0,0.0,0.0,-0.007,-0.011,0.06,0.0,0.0,0.0,0.0,0.0,0.0,0.0,0.0,0.0,0.379,-1.293,11.07,0.0,0.0,0.0,0.0,0.0,0.0,0.0,0.0,0.0
1576083166569854166,241,0,,0.0,0.0,0.0,0.0,0.0,0.0,0.0,0.0,0.0,0.0,0.0,0.0,0.0,-0.002,-0.009,0.05,0.0,0.0,0.0,0.0,0.0,0.0,0.0,0.0,0.0,-0.615,-0.504,11.58,0.0,0.0,0.0,0.0,0.0,0.0,0.0,0.0,0.0
1576083166645425403,242,0,,0.0,0.0,0.0,0.0,0.0,0.0,0.0,0.0,0.0,0.0,0.0,0.0,0.0,-0.009,0.005,0.06,0.0,0.0,0.0,0.0,0.0,0.0,0.0,0.0,0.0,-1.17,-0.58,5.37,0.0,0.0,0.0,0.0,0.0,0.0,0.0,0.0,0.0
1576083166704931851,243,0,,0.0,0.0,0.0,0.0,0.0,0.0,0.0,0.0,0.0,0.0,0.0,0.0,0.0,0.005,-0.014,0.06,0.0,0.0,0.0,0.0,0.0,0.0,0.0,0.0,0.0,-0.21,-0.435,6.45,0.0,0.0,0.0,0.0,0.0,0.0,0.0,0.0,0.0
1576083166757937876,244,0,,0.0,0.0,0.0,0.0,0.0,0.0,0.0,0.0,0.0,0.0,0.0,0.0,0.0,0.012,0.003,0.03,0.0,0.0,0.0,0.0,0.0,0.0,0.0,0.0,0.0,0.847,0.071,9.08,0.0,0.0,0.0,0.0,0.0,0.0,0.0,0.0,0.0
1576083166840913854,245,0,,0.0,0.0,0.0,0.0,0.0,0.0,0.0,0.0,0.0,0.0,0.0,0.0,0.0,-0.013,0.001,-0.07,0.0,0.0,0.0,0.0,0.0,0.0,0.0,0.0,0.0,-0.829,-1.183,8.52,0.0,0.0,0.0,0.0,0.0,0.0,0.0,0.0,0.0
1576083166891566099,246,0,,0.0,0.0,0.0,0.0,0.0,0.0,0.0,0.0,0.0,0.0,0.0,0.0,0.0,0.123,0.042,-0.2,0.0,0.0,0.0,0.0,0.0,0.0,0.0,0.0,0.0,-0.005,-0.087,1.79,0.0,0.0,0.0,0.0,0.0,0.0,0.0,0.0,0.0
1576083166970184829,247,0,,0.0,0.0,0.0,0.0,0.0,0.0,0.0,0.0,0.0,0.0,0.0,0.0,0.0,0.003,-0.007,-0.19,0.0,0.0,0.0,0.0,0.0,0.0,0.0,0.0,0.0,0.702,0.299,14.74,0.0,0.0,0.0,0.0,0.0,0.0,0.0,0.0,0.0
1576083167028339777,248,0,,0.0,0.0,0.0,0.0,0.0,0.0,0.0,0.0,0.0,0.0,0.0,0.0,0.0,-0.106,-0.02,0.09,0.0,0.0,0.0,0.0,0.0,0.0,0.0,0.0,0.0,-0.03,-0.864,11.13,0.0,0.0,0.0,0.0,0.0,0.0,0.0,0.0,0.0
1576083167104053223,249,0,,0.0,0.0,0.0,0.0,0.0,0.0,0.0,0.0,0.0,0.0,0.0,0.0,0.0,-0.036,-0.016,0.0,0.0,0.0,0.0,0.0,0.0,0.0,0.0,0.0,0.0,-0.009,-0.119,0.6,0.0,0.0,0.0,0.0,0.0,0.0,0.0,0.0,0.0
1576083167169298064,250,0,,0.0,0.0,0.0,0.0,0.0,0.0,0.0,0.0,0.0,0.0,0.0,0.0,0.0,-0.061,-0.013,-0.07,0.0,0.0,0.0,0.0,0.0,0.0,0.0,0.0,0.0,1.766,-3.006,19.18,0.0,0.0,0.0,0.0,0.0,0.0,0.0,0.0,0.0
1576083167237687712,251,0,,0.0,0.0,0.0,0.0,0.0,0.0,0.0,0.0,0.0,0.0,0.0,0.0,0.0,0.082,0.024,-0.0,0.0,0.0,0.0,0.0,0.0,0.0,0.0,0.0,0.0,-0.648,0.085,8.51,0.0,0.0,0.0,0.0,0.0,0.0,0.0,0.0,0.0
1576083167298099531,252,0,,0.0,0.0,0.0,0.0,0.0,0.0,0.0,0.0,0.0,0.0,0.0,0.0,0.0,-0.132,-0.029,-0.01,0.0,0.0,0.0,0.0,0.0,0.0,0.0,0.0,0.0,-0.331,-0.256,10.51,0.0,0.0,0.0,0.0,0.0,0.0,0.0,0.0,0.0
1576083167395884333,253,0,,0.0,0.0,0.0,0.0,0.0,0.0,0.0,0.0,0.0,0.0,0.0,0.0,0.0,0.01,-0.024,-0.02,0.0,0.0,0.0,0.0,0.0,0.0,0.0,0.0,0.0,-0.562,-1.207,8.39,0.0,0.0,0.0,0.0,0.0,0.0,0.0,0.0,0.0
1576083167433253170,254,0,,0.0,0.0,0.0,0.0,0.0,0.0,0.0,0.0,0.0,0.0,0.0,0.0,0.0,0.01,0.02,-0.0,0.0,0.0,0.0,0.0,0.0,0.0,0.0,0.0,0.0,-0.632,-0.09,7.04,0.0,0.0,0.0,0.0,0.0,0.0,0.0,0.0,0.0
1576083167507936855,255,0,,0.0,0.0,0.0,0.0,0.0,0.0,0.0,0.0,0.0,0.0,0.0,0.0,0.0,-0.021,-0.002,-0.02,0.0,0.0,0.0,0.0,0.0,0.0,0.0,0.0,0.0,1.983,-1.324,17.31,0.0,0.0,0.0,0.0,0.0,0.0,0.0,0.0,0.0
1576083167566666877,256,0,,0.0,0.0,0.0,0.0,0.0,0.0,0.0,0.0,0.0,0.0,0.0,0.0,0.0,0.034,-0.015,0.01,0.0,0.0,0.0,0.0,0.0,0.0,0.0,0.0,0.0,-0.166,-0.516,15.82,0.0,0.0,0.0,0.0,0.0,0.0,0.0,0.0,0.0
1576083167903650127,257,0,,0.0,0.0,0.0,0.0,0.0,0.0,0.0,0.0,0.0,0.0,0.0,0.0,0.0,0.009,0.001,0.02,0.0,0.0,0.0,0.0,0.0,0.0,0.0,0.0,0.0,0.001,-1.08,9.09,0.0,0.0,0.0,0.0,0.0,0.0,0.0,0.0,0.0
1576083167904687478,258,0,,0.0,0.0,0.0,0.0,0.0,0.0,0.0,0.0,0.0,0.0,0.0,0.0,0.0,0.031,-0.008,-0.0,0.0,0.0,0.0,0.0,0.0,0.0,0.0,0.0,0.0,2.033,-0.761,12.2,0.0,0.0,0.0,0.0,0.0,0.0,0.0,0.0,0.0
1576083167904736022,259,0,,0.0,0.0,0.0,0.0,0.0,0.0,0.0,0.0,0.0,0.0,0.0,0.0,0.0,0.036,0.015,0.02,0.0,0.0,0.0,0.0,0.0,0.0,0.0,0.0,0.0,0.241,0.033,5.51,0.0,0.0,0.0,0.0,0.0,0.0,0.0,0.0,0.0
1576083167905035439,260,0,,0.0,0.0,0.0,0.0,0.0,0.0,0.0,0.0,0.0,0.0,0.0,0.0,0.0,0.017,-0.005,0.11,0.0,0.0,0.0,0.0,0.0,0.0,0.0,0.0,0.0,0.25,-0.952,8.91,0.0,0.0,0.0,0.0,0.0,0.0,0.0,0.0,0.0
1576083167968276252,261,0,,0.0,0.0,0.0,0.0,0.0,0.0,0.0,0.0,0.0,0.0,0.0,0.0,0.0,0.012,0.003,0.14,0.0,0.0,0.0,0.0,0.0,0.0,0.0,0.0,0.0,-0.125,-0.484,3.62,0.0,0.0,0.0,0.0,0.0,0.0,0.0,0.0,0.0
1576083168099081646,262,0,,0.0,0.0,0.0,0.0,0.0,0.0,0.0,0.0,0.0,0.0,0.0,0.0,0.0,-0.011,-0.007,0.05,0.0,0.0,0.0,0.0,0.0,0.0,0.0,0.0,0.0,-1.06,-0.719,13.75,0.0,0.0,0.0,0.0,0.0,0.0,0.0,0.0,0.0
1576083168241342635,263,0,,0.0,0.0,0.0,0.0,0.0,0.0,0.0,0.0,0.0,0.0,0.0,0.0,0.0,0.024,-0.011,-0.03,0.0,0.0,0.0,0.0,0.0,0.0,0.0,0.0,0.0,0.38,0.134,5.84,0.0,0.0,0.0,0.0,0.0,0.0,0.0,0.0,0.0
1576083168370003283,264,0,,0.0,0.0,0.0,0.0,0.0,0.0,0.0,0.0,0.0,0.0,0.0,0.0,0.0,-0.108,-0.028,-0.07,0.0,0.0,0.0,0.0,0.0,0.0,0.0,0.0,0.0,-1.608,0.392,1.37,0.0,0.0,0.0,0.0,0.0,0.0,0.0,0.0,0.0
1576083168527204062,265,0,,0.0,0.0,0.0,0.0,0.0,0.0,0.0,0.0,0.0,0.0,0.0,0.0,0.0,-0.047,0.001,-0.12,0.0,0.0,0.0,0.0,0.0,0.0,0.0,0.0,0.0,0.784,-0.16,7.42,0.0,0.0,0.0,0.0,0.0,0.0,0.0,0.0,0.0
1576083168562654106,266,0,,0.0,0.0,0.0,0.0,0.0,0.0,0.0,0.0,0.0,0.0,0.0,0.0,0.0,-0.056,-0.011,-0.08,0.0,0.0,0.0,0.0,0.0,0.0,0.0,0.0,0.0,-0.127,-0.73,2.93,0.0,0.0,0.0,0.0,0.0,0.0,0.0,0.0,0.0
1576083168639444457,267,0,,0.0,0.0,0.0,0.0,0.0,0.0,0.0,0.0,0.0,0.0,0.0,0.0,0.0,0.003,0.016,0.03,0.0,0.0,0.0,0.0,0.0,0.0,0.0,0.0,0.0,0.754,-0.875,6.35,0.0,0.0,0.0,0.0,0.0,0.0,0.0,0.0,0.0
1576083168708195284,268,0,,0.0,0.0,0.0,0.0,0.0,0.0,0.0,0.0,0.0,0.0,0.0,0.0,0.0,-0.043,0.017,0.0,0.0,0.0,0.0,0.0,0.0,0.0,0.0,0.0,0.0,-0.162,-0.342,12.39,0.0,0.0,0.0,0.0,0.0,0.0,0.0,0.0,0.0
1576083168773512315,269,0,,0.0,0.0,0.0,0.0,0.0,0.0,0.0,0.0,0.0,0.0,0.0,0.0,0.0,0.036,-0.012,0.15,0.0,0.0,0.0,0.0,0.0,0.0,0.0,0.0,0.0,-0.181,-0.44,10.86,0.0,0.0,0.0,0.0,0.0,0.0,0.0,0.0,0.0
1576083168830724220,270,0,,0.0,0.0,0.0,0.0,0.0,0.0,0.0,0.0,0.0,0.0,0.0,0.0,0.0,0.068,0.004,0.15,0.0,0.0,0.0,0.0,0.0,0.0,0.0,0.0,0.0,-0.118,0.478,13.12,0.0,0.0,0.0,0.0,0.0,0.0,0.0,0.0,0.0
1576083168914964217,271,0,,0.0,0.0,0.0,0.0,0.0,0.0,0.0,0.0,0.0,0.0,0.0,0.0,0.0,0.014,0.026,0.11,0.0,0.0,0.0,0.0,0.0,0.0,0.0,0.0,0.0,-0.031,-0.364,9.72,0.0,0.0,0.0,0.0,0.0,0.0,0.0,0.0,0.0
1576083169040191239,272,0,,0.0,0.0,0.0,0.0,0.0,0.0,0.0,0.0,0.0,0.0,0.0,0.0,0.0,-0.043,-0.007,-0.0,0.0,0.0,0.0,0.0,0.0,0.0,0.0,0.0,0.0,0.64,-0.782,10.62,0.0,0.0,0.0,0.0,0.0,0.0,0.0,0.0,0.0
1576083169097802451,273,0,,0.0,0.0,0.0,0.0,0.0,0.0,0.0,0.0,0.0,0.0,0.0,0.0,0.0,-0.058,-0.003,-0.08,0.0,0.0,0.0,0.0,0.0,0.0,0.0,0.0,0.0,0.357,-0.156,7.84,0.0,0.0,0.0,0.0,0.0,0.0,0.0,0.0,0.0
1576083169156022459,274,0,,0.0,0.0,0.0,0.0,0.0,0.0,0.0,0.0,0.0,0.0,0.0,0.0,0.0,0.007,0.004,-0.15,0.0,0.0,0.0,0.0,0.0,0.0,0.0,0.0,0.0,-1.104,-0.594,6.83,0.0,0.0,0.0,0.0,0.0,0.0,0.0,0.0,0.0
1576083169249242718,275,0,,0.0,0.0,0.0,0.0,0.0,0.0,0.0,0.0,0.0,0.0,0.0,0.0,0.0,0.01,-0.001,-0.21,0.0,0.0,0.0,0.0,0.0,0.0,0.0,0.0,0.0,0.03,-1.03,14.25,0.0,0.0,0.0,0.0,0.0,0.0,0.0,0.0,0.0
1576083169334608283,276,0,,0.0,0.0,0.0,0.0,0.0,0.0,0.0,0.0,0.0,0.0,0.0,0.0,0.0,0.054,-0.005,-0.2,0.0,0.0,0.0,0.0,0.0,0.0,0.0,0.0,0.0,0.95,0.063,11.83,0.0,0.0,0.0,0.0,0.0,0.0,0.0,0.0,0.0
1576083169378094163,277,0,,0.0,0.0,0.0,0.0,0.0,0.0,0.0,0.0,0.0,0.0,0.0,0.0,0.0,0.045,0.019,-0.15,0.0,0.0,0.0,0.0,0.0,0.0,0.0,0.0,0.0,0.563,0.031,6.49,0.0,0.0,0.0,0.0,0.0,0.0,0.0,0.0,0.0
1576083169427073735,278,0,,0.0,0.0,0.0,0.0,0.0,0.0,0.0,0.0,0.0,0.0,0.0,0.0,0.0,-0.01,-0.005,-0.11,0.0,0.0,0.0,0.0,0.0,0.0,0.0,0.0,0.0,1.413,-1.894,15.2,0.0,0.0,0.0,0.0,0.0,0.0,0.0,0.0,0.0
1576083169505888068,279,0,,0.0,0.0,0.0,0.0,0.0,0.0,0.0,0.0,0.0,0.0,0.0,0.0,0.0,0.028,0.007,-0.05,0.0,0.0,0.0,0.0,0.0,0.0,0.0,0.0,0.0,-0.258,0.159,9.13,0.0,0.0,0.0,0.0,0.0,0.0,0.0,0.0,0.0
1576083169572400139,280,0,,0.0,0.0,0.0,0.0,0.0,0.0,0.0,0.0,0.0,0.0,0.0,0.0,0.0,-0.028,0.01,-0.02,0.0,0.0,0.0,0.0,0.0,0.0,0.0,0.0,0.0,0.25,-0.441,6.1,0.0,0.0,0.0,0.0,0.0,0.0,0.0,0.0,0.0
1576083169636962264,281,0,,0.0,0.0,0.0,0.0,0.0,0.0,0.0,0.0,0.0,0.0,0.0,0.0,0.0,-0.051,0.091,-0.04,0.0,0.0,0.0,0.0,0.0,0.0,0.0,0.0,0.0,-0.01,-0.518,2.22,0.0,0.0,0.0,0.0,0.0,0.0,0.0,0.0,0.0
1576083169695475714,282,0,,0.0,0.0,0.0,0.0,0.0,0.0,0.0,0.0,0.0,0.0,0.0,0.0,0.0,0.042,-0.07,-0.02,0.0,0.0,0.0,0.0,0.0,0.0,0.0,0.0,0.0,-0.57,0.444,11.05,0.0,0.0,0.0,0.0,0.0,0.0,0.0,0.0,0.0
1576083169790162175,283,0,,0.0,0.0,0.0,0.0,0.0,0.0,0.0,0.0,0.0,0.0,0.0,0.0,0.0,-0.052,-0.03,-0.0,0.0,0.0,0.0,0.0,0.0,0.0,0.0,0.0,0.0,0.474,-1.419,9.06,0.0,0.0,0.0,0.0,0.0,0.0,0.0,0.0,0.0
1576083169831409290,284,0,,0.0,0.0,0.0,0.0,0.0,0.0,0.0,0.0,0.0,0.0,0.0,0.0,0.0,0.022,0.002,0.03,0.0,0.0,0.0,0.0,0.0,0.0,0.0,0.0,0.0,0.178,-0.328,3.76,0.0,0.0,0.0,0.0,0.0,0.0,0.0,0.0,0.0
1576083169905733034,285,0,,0.0,0.0,0.0,0.0,0.0,0.0,0.0,0.0,0.0,0.0,0.0,0.0,0.0,-0.108,-0.235,-0.09,0.0,0.0,0.0,0.0,0.0,0.0,0.0,0.0,0.0,3.71,-6.172,17.43,0.0,0.0,0.0,0.0,0.0,0.0,0.0,0.0,0.0
1576083170040085398,286,0,,0.0,0.0,0.0,0.0,0.0,0.0,0.0,0.0,0.0,0.0,0.0,0.0,0.0,-0.068,-0.047,-0.12,0.0,0.0,0.0,0.0,0.0,0.0,0.0,0.0,0.0,1.229,-0.258,8.86,0.0,0.0,0.0,0.0,0.0,0.0,0.0,0.0,0.0
1576083170174145946,287,0,,0.0,0.0,0.0,0.0,0.0,0.0,0.0,0.0,0.0,0.0,0.0,0.0,0.0,0.035,0.002,0.01,0.0,0.0,0.0,0.0,0.0,0.0,0.0,0.0,0.0,0.288,0.13,9.89,0.0,0.0,0.0,0.0,0.0,0.0,0.0,0.0,0.0
1576083170231574177,288,0,,0.0,0.0,0.0,0.0,0.0,0.0,0.0,0.0,0.0,0.0,0.0,0.0,0.0,0.016,-0.002,0.03,0.0,0.0,0.0,0.0,0.0,0.0,0.0,0.0,0.0,0.419,-0.761,7.61,0.0,0.0,0.0,0.0,0.0,0.0,0.0,0.0,0.0
1576083170311833026,289,0,,0.0,0.0,0.0,0.0,0.0,0.0,0.0,0.0,0.0,0.0,0.0,0.0,0.0,0.01,0.004,0.02,0.0,0.0,0.0,0.0,0.0,0.0,0.0,0.0,0.0,0.46,0.073,4.48,0.0,0.0,0.0,0.0,0.0,0.0,0.0,0.0,0.0
1576083170368991253,290,0,,0.0,0.0,0.0,0.0,0.0,0.0,0.0,0.0,0.0,0.0,0.0,0.0,0.0,-0.01,0.001,0.03,0.0,0.0,0.0,0.0,0.0,0.0,0.0,0.0,0.0,0.329,0.01,4.47,0.0,0.0,0.0,0.0,0.0,0.0,0.0,0.0,0.0
1576083170498577776,291,0,,0.0,0.0,0.0,0.0,0.0,0.0,0.0,0.0,0.0,0.0,0.0,0.0,0.0,-0.001,-0.015,0.03,0.0,0.0,0.0,0.0,0.0,0.0,0.0,0.0,0.0,-0.577,-0.132,9.18,0.0,0.0,0.0,0.0,0.0,0.0,0.0,0.0,0.0
1576083170557188420,292,0,,0.0,0.0,0.0,0.0,0.0,0.0,0.0,0.0,0.0,0.0,0.0,0.0,0.0,0.01,-0.008,0.02,0.0,0.0,0.0,0.0,0.0,0.0,0.0,0.0,0.0,1.226,-0.327,4.28,0.0,0.0,0.0,0.0,0.0,0.0,0.0,0.0,0.0
1576083170634517481,293,0,,0.0,0.0,0.0,0.0,0.0,0.0,0.0,0.0,0.0,0.0,0.0,0.0,0.0,0.005,-0.002,-0.0,0.0,0.0,0.0,0.0,0.0,0.0,0.0,0.0,0.0,-0.531,-0.05,9.15,0.0,0.0,0.0,0.0,0.0,0.0,0.0,0.0,0.0
1576083170693267808,294,0,,0.0,0.0,0.0,0.0,0.0,0.0,0.0,0.0,0.0,0.0,0.0,0.0,0.0,0.013,0.003,-0.03,0.0,0.0,0.0,0.0,0.0,0.0,0.0,0.0,0.0,0.19,-0.669,10.98,0.0,0.0,0.0,0.0,0.0,0.0,0.0,0.0,0.0
1576083170770871109,295,0,,0.0,0.0,0.0,0.0,0.0,0.0,0.0,0.0,0.0,0.0,0.0,0.0,0.0,-0.025,0.004,-0.05,0.0,0.0,0.0,0.0,0.0,0.0,0.0,0.0,0.0,0.462,0.44,7.23,0.0,0.0,0.0,0.0,0.0,0.0,0.0,0.0,0.0
1576083170828870283,296,0,,0.0,0.0,0.0,0.0,0.0,0.0,0.0,0.0,0.0,0.0,0.0,0.0,0.0,-0.035,0.004,-0.08,0.0,0.0,0.0,0.0,0.0,0.0,0.0,0.0,0.0,0.14,-0.45,5.53,0.0,0.0,0.0,0.0,0.0,0.0,0.0,0.0,0.0
1576083170905552266,297,0,,0.0,0.0,0.0,0.0,0.0,0.0,0.0,0.0,0.0,0.0,0.0,0.0,0.0,-0.069,-0.015,-0.07,0.0,0.0,0.0,0.0,0.0,0.0,0.0,0.0,0.0,1.089,-0.824,8.9,0.0,0.0,0.0,0.0,0.0,0.0,0.0,0.0,0.0
1576083171078526031,298,0,,0.0,0.0,0.0,0.0,0.0,0.0,0.0,0.0,0.0,0.0,0.0,0.0,0.0,0.048,0.039,0.01,0.0,0.0,0.0,0.0,0.0,0.0,0.0,0.0,0.0,0.449,0.344,9.27,0.0,0.0,0.0,0.0,0.0,0.0,0.0,0.0,0.0
1576083171099278807,299,0,,0.0,0.0,0.0,0.0,0.0,0.0,0.0,0.0,0.0,0.0,0.0,0.0,0.0,0.002,0.003,-0.02,0.0,0.0,0.0,0.0,0.0,0.0,0.0,0.0,0.0,0.703,-0.187,5.87,0.0,0.0,0.0,0.0,0.0,0.0,0.0,0.0,0.0
1576083171172377453,300,0,,0.0,0.0,0.0,0.0,0.0,0.0,0.0,0.0,0.0,0.0,0.0,0.0,0.0,-0.006,-0.077,-0.0,0.0,0.0,0.0,0.0,0.0,0.0,0.0,0.0,0.0,-1.1,-0.93,2.75,0.0,0.0,0.0,0.0,0.0,0.0,0.0,0.0,0.0
1576083171230259391,301,0,,0.0,0.0,0.0,0.0,0.0,0.0,0.0,0.0,0.0,0.0,0.0,0.0,0.0,0.0,0.07,-0.04,0.0,0.0,0.0,0.0,0.0,0.0,0.0,0.0,0.0,0.162,-0.258,6.6,0.0,0.0,0.0,0.0,0.0,0.0,0.0,0.0,0.0
1576083171314510276,302,0,,0.0,0.0,0.0,0.0,0.0,0.0,0.0,0.0,0.0,0.0,0.0,0.0,0.0,0.026,0.013,0.01,0.0,0.0,0.0,0.0,0.0,0.0,0.0,0.0,0.0,0.078,0.113,15.84,0.0,0.0,0.0,0.0,0.0,0.0,0.0,0.0,0.0
1576083171442373807,303,0,,0.0,0.0,0.0,0.0,0.0,0.0,0.0,0.0,0.0,0.0,0.0,0.0,0.0,0.012,0.006,0.05,0.0,0.0,0.0,0.0,0.0,0.0,0.0,0.0,0.0,0.351,-0.058,4.36,0.0,0.0,0.0,0.0,0.0,0.0,0.0,0.0,0.0
1576083171574204872,304,0,,0.0,0.0,0.0,0.0,0.0,0.0,0.0,0.0,0.0,0.0,0.0,0.0,0.0,-0.008,0.0,0.08,0.0,0.0,0.0,0.0,0.0,0.0,0.0,0.0,0.0,-0.04,0.466,8.07,0.0,0.0,0.0,0.0,0.0,0.0,0.0,0.0,0.0
1576083171645698096,305,0,,0.0,0.0,0.0,0.0,0.0,0.0,0.0,0.0,0.0,0.0,0.0,0.0,0.0,0.075,-0.055,0.06,0.0,0.0,0.0,0.0,0.0,0.0,0.0,0.0,0.0,-0.948,-0.761,1.92,0.0,0.0,0.0,0.0,0.0,0.0,0.0,0.0,0.0
1576083171770783465,306,0,,0.0,0.0,0.0,0.0,0.0,0.0,0.0,0.0,0.0,0.0,0.0,0.0,0.0,0.18,-0.882,1.59,0.0,0.0,0.0,0.0,0.0,0.0,0.0,0.0,0.0,-1.225,0.53,8.91,0.0,0.0,0.0,0.0,0.0,0.0,0.0,0.0,0.0
1576083171864697129,307,0,,0.0,0.0,0.0,0.0,0.0,0.0,0.0,0.0,0.0,0.0,0.0,0.0,0.0,0.169,-2.221,2.57,0.0,0.0,0.0,0.0,0.0,0.0,0.0,0.0,0.0,3.695,0.054,10.11,0.0,0.0,0.0,0.0,0.0,0.0,0.0,0.0,0.0
1576083171902993960,308,0,,0.0,0.0,0.0,0.0,0.0,0.0,0.0,0.0,0.0,0.0,0.0,0.0,0.0,0.535,-3.216,1.62,0.0,0.0,0.0,0.0,0.0,0.0,0.0,0.0,0.0,4.724,-2.311,8.13,0.0,0.0,0.0,0.0,0.0,0.0,0.0,0.0,0.0
1576083171974287044,309,0,,0.0,0.0,0.0,0.0,0.0,0.0,0.0,0.0,0.0,0.0,0.0,0.0,0.0,-0.275,-0.231,-0.45,0.0,0.0,0.0,0.0,0.0,0.0,0.0,0.0,0.0,3.277,-2.29,11.05,0.0,0.0,0.0,0.0,0.0,0.0,0.0,0.0,0.0
1576083172034294278,310,0,,0.0,0.0,0.0,0.0,0.0,0.0,0.0,0.0,0.0,0.0,0.0,0.0,0.0,1.274,-0.315,-0.14,0.0,0.0,0.0,0.0,0.0,0.0,0.0,0.0,0.0,9.05,0.031,12.84,0.0,0.0,0.0,0.0,0.0,0.0,0.0,0.0,0.0
1576083172095706904,311,0,,0.0,0.0,0.0,0.0,0.0,0.0,0.0,0.0,0.0,0.0,0.0,0.0,0.0,2.912,2.369,-1.74,0.0,0.0,0.0,0.0,0.0,0.0,0.0,0.0,0.0,7.481,1.37,9.63,0.0,0.0,0.0,0.0,0.0,0.0,0.0,0.0,0.0
1576083174253421002,312,0,,0.0,0.0,0.0,0.0,0.0,0.0,0.0,0.0,0.0,0.0,0.0,0.0,0.0,0.491,0.208,0.22,0.0,0.0,0.0,0.0,0.0,0.0,0.0,0.0,0.0,-0.219,7.582,8.31,0.0,0.0,0.0,0.0,0.0,0.0,0.0,0.0,0.0
1576083174253451225,313,0,,0.0,0.0,0.0,0.0,0.0,0.0,0.0,0.0,0.0,0.0,0.0,0.0,0.0,-0.093,0.279,0.09,0.0,0.0,0.0,0.0,0.0,0.0,0.0,0.0,0.0,-0.839,7.711,7.71,0.0,0.0,0.0,0.0,0.0,0.0,0.0,0.0,0.0
1576083174253478093,314,0,,0.0,0.0,0.0,0.0,0.0,0.0,0.0,0.0,0.0,0.0,0.0,0.0,0.0,-0.548,-0.014,-0.1,0.0,0.0,0.0,0.0,0.0,0.0,0.0,0.0,0.0,-0.753,6.174,5.72,0.0,0.0,0.0,0.0,0.0,0.0,0.0,0.0,0.0
1576083174338382914,315,0,,0.0,0.0,0.0,0.0,0.0,0.0,0.0,0.0,0.0,0.0,0.0,0.0,0.0,-0.254,0.06,-0.16,0.0,0.0,0.0,0.0,0.0,0.0,0.0,0.0,0.0,0.074,6.089,5.89,0.0,0.0,0.0,0.0,0.0,0.0,0.0,0.0,0.0
1576083174365107851,316,0,,0.0,0.0,0.0,0.0,0.0,0.0,0.0,0.0,0.0,0.0,0.0,0.0,0.0,0.309,-0.164,0.3,0.0,0.0,0.0,0.0,0.0,0.0,0.0,0.0,0.0,-0.808,6.555,5.68,0.0,0.0,0.0,0.0,0.0,0.0,0.0,0.0,0.0
1576083174449499055,317,0,,0.0,0.0,0.0,0.0,0.0,0.0,0.0,0.0,0.0,0.0,0.0,0.0,0.0,0.167,-0.214,0.23,0.0,0.0,0.0,0.0,0.0,0.0,0.0,0.0,0.0,2.003,8.692,7.86,0.0,0.0,0.0,0.0,0.0,0.0,0.0,0.0,0.0
1576083174501454777,318,0,,0.0,0.0,0.0,0.0,0.0,0.0,0.0,0.0,0.0,0.0,0.0,0.0,0.0,-0.87,0.155,-0.51,0.0,0.0,0.0,0.0,0.0,0.0,0.0,0.0,0.0,0.154,6.786,7.62,0.0,0.0,0.0,0.0,0.0,0.0,0.0,0.0,0.0
1576083174566159102,319,0,,0.0,0.0,0.0,0.0,0.0,0.0,0.0,0.0,0.0,0.0,0.0,0.0,0.0,-0.17,0.098,-0.05,0.0,0.0,0.0,0.0,0.0,0.0,0.0,0.0,0.0,0.957,7.626,7.5,0.0,0.0,0.0,0.0,0.0,0.0,0.0,0.0,0.0
1576083174653820789,320,0,,0.0,0.0,0.0,0.0,0.0,0.0,0.0,0.0,0.0,0.0,0.0,0.0,0.0,-0.429,0.032,-0.2,0.0,0.0,0.0,0.0,0.0,0.0,0.0,0.0,0.0,0.648,7.205,6.52,0.0,0.0,0.0,0.0,0.0,0.0,0.0,0.0,0.0
1576083174701071320,321,0,,0.0,0.0,0.0,0.0,0.0,0.0,0.0,0.0,0.0,0.0,0.0,0.0,0.0,0.149,-0.141,0.07,0.0,0.0,0.0,0.0,0.0,0.0,0.0,0.0,0.0,-0.398,6.238,6.17,0.0,0.0,0.0,0.0,0.0,0.0,0.0,0.0,0.0
1576083174765716770,322,0,,0.0,0.0,0.0,0.0,0.0,0.0,0.0,0.0,0.0,0.0,0.0,0.0,0.0,0.688,-0.078,0.26,0.0,0.0,0.0,0.0,0.0,0.0,0.0,0.0,0.0,-0.076,6.609,6.04,0.0,0.0,0.0,0.0,0.0,0.0,0.0,0.0,0.0
1576083174834738632,323,0,,0.0,0.0,0.0,0.0,0.0,0.0,0.0,0.0,0.0,0.0,0.0,0.0,0.0,0.497,0.22,0.19,0.0,0.0,0.0,0.0,0.0,0.0,0.0,0.0,0.0,0.407,7.812,6.53,0.0,0.0,0.0,0.0,0.0,0.0,0.0,0.0,0.0
1576083174977818132,324,0,,0.0,0.0,0.0,0.0,0.0,0.0,0.0,0.0,0.0,0.0,0.0,0.0,0.0,0.668,0.502,-0.08,0.0,0.0,0.0,0.0,0.0,0.0,0.0,0.0,0.0,0.312,7.62,6.93,0.0,0.0,0.0,0.0,0.0,0.0,0.0,0.0,0.0
1576083175072291982,325,0,,0.0,0.0,0.0,0.0,0.0,0.0,0.0,0.0,0.0,0.0,0.0,0.0,0.0,-1.111,-0.245,0.0,0.0,0.0,0.0,0.0,0.0,0.0,0.0,0.0,0.0,-0.336,7.406,7.98,0.0,0.0,0.0,0.0,0.0,0.0,0.0,0.0,0.0
1576083175096825136,326,0,,0.0,0.0,0.0,0.0,0.0,0.0,0.0,0.0,0.0,0.0,0.0,0.0,0.0,-0.296,0.01,-0.62,0.0,0.0,0.0,0.0,0.0,0.0,0.0,0.0,0.0,-1.615,5.811,8.58,0.0,0.0,0.0,0.0,0.0,0.0,0.0,0.0,0.0
1576083175180590641,327,0,,0.0,0.0,0.0,0.0,0.0,0.0,0.0,0.0,0.0,0.0,0.0,0.0,0.0,-0.324,-0.004,-0.29,0.0,0.0,0.0,0.0,0.0,0.0,0.0,0.0,0.0,-0.749,6.521,6.85,0.0,0.0,0.0,0.0,0.0,0.0,0.0,0.0,0.0
1576083175263858280,328,0,,0.0,0.0,0.0,0.0,0.0,0.0,0.0,0.0,0.0,0.0,0.0,0.0,0.0,0.682,-0.168,0.43,0.0,0.0,0.0,0.0,0.0,0.0,0.0,0.0,0.0,-0.954,6.686,6.96,0.0,0.0,0.0,0.0,0.0,0.0,0.0,0.0,0.0
1576083175301056543,329,0,,0.0,0.0,0.0,0.0,0.0,0.0,0.0,0.0,0.0,0.0,0.0,0.0,0.0,0.417,0.063,0.17,0.0,0.0,0.0,0.0,0.0,0.0,0.0,0.0,0.0,0.456,8.341,7.59,0.0,0.0,0.0,0.0,0.0,0.0,0.0,0.0,0.0
1576083175381478568,330,0,,0.0,0.0,0.0,0.0,0.0,0.0,0.0,0.0,0.0,0.0,0.0,0.0,0.0,0.796,0.146,0.25,0.0,0.0,0.0,0.0,0.0,0.0,0.0,0.0,0.0,-0.048,7.983,7.43,0.0,0.0,0.0,0.0,0.0,0.0,0.0,0.0,0.0
1576083175466975008,331,0,,0.0,0.0,0.0,0.0,0.0,0.0,0.0,0.0,0.0,0.0,0.0,0.0,0.0,-0.229,0.011,-0.28,0.0,0.0,0.0,0.0,0.0,0.0,0.0,0.0,0.0,0.951,8.454,5.62,0.0,0.0,0.0,0.0,0.0,0.0,0.0,0.0,0.0
1576083175497369505,332,0,,0.0,0.0,0.0,0.0,0.0,0.0,0.0,0.0,0.0,0.0,0.0,0.0,0.0,-0.041,0.104,-0.05,0.0,0.0,0.0,0.0,0.0,0.0,0.0,0.0,0.0,-0.634,7.001,5.3,0.0,0.0,0.0,0.0,0.0,0.0,0.0,0.0,0.0
1576083175583434798,333,0,,0.0,0.0,0.0,0.0,0.0,0.0,0.0,0.0,0.0,0.0,0.0,0.0,0.0,-0.471,-0.048,0.0,0.0,0.0,0.0,0.0,0.0,0.0,0.0,0.0,0.0,-0.029,6.836,3.69,0.0,0.0,0.0,0.0,0.0,0.0,0.0,0.0,0.0
1576083175671439526,334,0,,0.0,0.0,0.0,0.0,0.0,0.0,0.0,0.0,0.0,0.0,0.0,0.0,0.0,0.16,-0.097,0.22,0.0,0.0,0.0,0.0,0.0,0.0,0.0,0.0,0.0,0.2,6.52,5.58,0.0,0.0,0.0,0.0,0.0,0.0,0.0,0.0,0.0
1576083175735012568,335,0,,0.0,0.0,0.0,0.0,0.0,0.0,0.0,0.0,0.0,0.0,0.0,0.0,0.0,0.293,0.28,-0.05,0.0,0.0,0.0,0.0,0.0,0.0,0.0,0.0,0.0,0.387,8.213,4.6,0.0,0.0,0.0,0.0,0.0,0.0,0.0,0.0,0.0
1576083175782308181,336,0,,0.0,0.0,0.0,0.0,0.0,0.0,0.0,0.0,0.0,0.0,0.0,0.0,0.0,0.512,0.92,-0.05,0.0,0.0,0.0,0.0,0.0,0.0,0.0,0.0,0.0,0.013,8.735,5.53,0.0,0.0,0.0,0.0,0.0,0.0,0.0,0.0,0.0
1576083175877314892,337,0,,0.0,0.0,0.0,0.0,0.0,0.0,0.0,0.0,0.0,0.0,0.0,0.0,0.0,-1.179,-0.556,-0.06,0.0,0.0,0.0,0.0,0.0,0.0,0.0,0.0,0.0,-0.833,7.844,7.52,0.0,0.0,0.0,0.0,0.0,0.0,0.0,0.0,0.0
1576083175905862833,338,0,,0.0,0.0,0.0,0.0,0.0,0.0,0.0,0.0,0.0,0.0,0.0,0.0,0.0,-0.359,0.149,-0.28,0.0,0.0,0.0,0.0,0.0,0.0,0.0,0.0,0.0,-0.385,7.821,8.14,0.0,0.0,0.0,0.0,0.0,0.0,0.0,0.0,0.0
1576083175988040372,339,0,,0.0,0.0,0.0,0.0,0.0,0.0,0.0,0.0,0.0,0.0,0.0,0.0,0.0,-0.523,-0.032,-0.08,0.0,0.0,0.0,0.0,0.0,0.0,0.0,0.0,0.0,-1.035,6.178,6.31,0.0,0.0,0.0,0.0,0.0,0.0,0.0,0.0,0.0
1576083176110667793,340,0,,0.0,0.0,0.0,0.0,0.0,0.0,0.0,0.0,0.0,0.0,0.0,0.0,0.0,0.194,-0.005,0.14,0.0,0.0,0.0,0.0,0.0,0.0,0.0,0.0,0.0,-0.133,6.564,5.8,0.0,0.0,0.0,0.0,0.0,0.0,0.0,0.0,0.0
1576083176231141485,341,0,,0.0,0.0,0.0,0.0,0.0,0.0,0.0,0.0,0.0,0.0,0.0,0.0,0.0,0.146,0.189,-0.07,0.0,0.0,0.0,0.0,0.0,0.0,0.0,0.0,0.0,-2.144,6.883,8.82,0.0,0.0,0.0,0.0,0.0,0.0,0.0,0.0,0.0
1576083176297745469,342,0,,0.0,0.0,0.0,0.0,0.0,0.0,0.0,0.0,0.0,0.0,0.0,0.0,0.0,-0.994,0.427,-0.51,0.0,0.0,0.0,0.0,0.0,0.0,0.0,0.0,0.0,0.721,8.109,7.13,0.0,0.0,0.0,0.0,0.0,0.0,0.0,0.0,0.0
1576083176379189490,343,0,,0.0,0.0,0.0,0.0,0.0,0.0,0.0,0.0,0.0,0.0,0.0,0.0,0.0,0.142,-0.779,0.77,0.0,0.0,0.0,0.0,0.0,0.0,0.0,0.0,0.0,-0.467,7.369,6.83,0.0,0.0,0.0,0.0,0.0,0.0,0.0,0.0,0.0
1576083176429571436,344,0,,0.0,0.0,0.0,0.0,0.0,0.0,0.0,0.0,0.0,0.0,0.0,0.0,0.0,-0.361,0.01,0.23,0.0,0.0,0.0,0.0,0.0,0.0,0.0,0.0,0.0,0.712,7.761,5.52,0.0,0.0,0.0,0.0,0.0,0.0,0.0,0.0,0.0
1576083176497806086,345,0,,0.0,0.0,0.0,0.0,0.0,0.0,0.0,0.0,0.0,0.0,0.0,0.0,0.0,0.487,-0.087,0.23,0.0,0.0,0.0,0.0,0.0,0.0,0.0,0.0,0.0,-0.357,6.306,6.04,0.0,0.0,0.0,0.0,0.0,0.0,0.0,0.0,0.0
1576083176577799388,346,0,,0.0,0.0,0.0,0.0,0.0,0.0,0.0,0.0,0.0,0.0,0.0,0.0,0.0,0.549,0.205,0.02,0.0,0.0,0.0,0.0,0.0,0.0,0.0,0.0,0.0,0.753,7.067,7.03,0.0,0.0,0.0,0.0,0.0,0.0,0.0,0.0,0.0
1576083176634218436,347,0,,0.0,0.0,0.0,0.0,0.0,0.0,0.0,0.0,0.0,0.0,0.0,0.0,0.0,0.604,0.273,-0.07,0.0,0.0,0.0,0.0,0.0,0.0,0.0,0.0,0.0,-0.905,8.191,4.64,0.0,0.0,0.0,0.0,0.0,0.0,0.0,0.0,0.0
1576083176701732786,348,0,,0.0,0.0,0.0,0.0,0.0,0.0,0.0,0.0,0.0,0.0,0.0,0.0,0.0,0.211,-0.308,0.42,0.0,0.0,0.0,0.0,0.0,0.0,0.0,0.0,0.0,-0.611,8.144,9.35,0.0,0.0,0.0,0.0,0.0,0.0,0.0,0.0,0.0
1576083176776643661,349,0,,0.0,0.0,0.0,0.0,0.0,0.0,0.0,0.0,0.0,0.0,0.0,0.0,0.0,-1.136,-0.152,0.08,0.0,0.0,0.0,0.0,0.0,0.0,0.0,0.0,0.0,0.306,6.755,7.0,0.0,0.0,0.0,0.0,0.0,0.0,0.0,0.0,0.0
1576083176868382138,350,0,,0.0,0.0,0.0,0.0,0.0,0.0,0.0,0.0,0.0,0.0,0.0,0.0,0.0,-0.131,-0.02,0.13,0.0,0.0,0.0,0.0,0.0,0.0,0.0,0.0,0.0,1.511,6.202,5.12,0.0,0.0,0.0,0.0,0.0,0.0,0.0,0.0,0.0
1576083176901312939,351,0,,0.0,0.0,0.0,0.0,0.0,0.0,0.0,0.0,0.0,0.0,0.0,0.0,0.0,0.438,-0.119,0.1,0.0,0.0,0.0,0.0,0.0,0.0,0.0,0.0,0.0,0.965,6.182,4.71,0.0,0.0,0.0,0.0,0.0,0.0,0.0,0.0,0.0
1576083176979913523,352,0,,0.0,0.0,0.0,0.0,0.0,0.0,0.0,0.0,0.0,0.0,0.0,0.0,0.0,0.352,-0.224,-0.29,0.0,0.0,0.0,0.0,0.0,0.0,0.0,0.0,0.0,0.176,6.411,6.71,0.0,0.0,0.0,0.0,0.0,0.0,0.0,0.0,0.0
1576083177106731907,353,0,,0.0,0.0,0.0,0.0,0.0,0.0,0.0,0.0,0.0,0.0,0.0,0.0,0.0,-0.308,0.497,-0.79,0.0,0.0,0.0,0.0,0.0,0.0,0.0,0.0,0.0,0.25,7.739,10.16,0.0,0.0,0.0,0.0,0.0,0.0,0.0,0.0,0.0
1576083177183917779,354,0,,0.0,0.0,0.0,0.0,0.0,0.0,0.0,0.0,0.0,0.0,0.0,0.0,0.0,-0.474,-0.451,-0.16,0.0,0.0,0.0,0.0,0.0,0.0,0.0,0.0,0.0,-0.528,8.265,5.18,0.0,0.0,0.0,0.0,0.0,0.0,0.0,0.0,0.0
1576083177237951838,355,0,,0.0,0.0,0.0,0.0,0.0,0.0,0.0,0.0,0.0,0.0,0.0,0.0,0.0,-0.399,0.433,-0.5,0.0,0.0,0.0,0.0,0.0,0.0,0.0,0.0,0.0,-0.51,6.867,6.06,0.0,0.0,0.0,0.0,0.0,0.0,0.0,0.0,0.0
1576083177310381666,356,0,,0.0,0.0,0.0,0.0,0.0,0.0,0.0,0.0,0.0,0.0,0.0,0.0,0.0,0.667,0.179,-0.09,0.0,0.0,0.0,0.0,0.0,0.0,0.0,0.0,0.0,-1.068,6.019,3.88,0.0,0.0,0.0,0.0,0.0,0.0,0.0,0.0,0.0
1576083177430144140,357,0,,0.0,0.0,0.0,0.0,0.0,0.0,0.0,0.0,0.0,0.0,0.0,0.0,0.0,0.502,0.165,0.12,0.0,0.0,0.0,0.0,0.0,0.0,0.0,0.0,0.0,-1.283,8.282,5.82,0.0,0.0,0.0,0.0,0.0,0.0,0.0,0.0,0.0
1576083177494926657,358,0,,0.0,0.0,0.0,0.0,0.0,0.0,0.0,0.0,0.0,0.0,0.0,0.0,0.0,0.936,0.387,0.28,0.0,0.0,0.0,0.0,0.0,0.0,0.0,0.0,0.0,-0.947,9.614,8.49,0.0,0.0,0.0,0.0,0.0,0.0,0.0,0.0,0.0
1576083177580372854,359,0,,0.0,0.0,0.0,0.0,0.0,0.0,0.0,0.0,0.0,0.0,0.0,0.0,0.0,-1.337,-0.622,0.09,0.0,0.0,0.0,0.0,0.0,0.0,0.0,0.0,0.0,-0.797,8.864,6.33,0.0,0.0,0.0,0.0,0.0,0.0,0.0,0.0,0.0
1576083177630593468,360,0,,0.0,0.0,0.0,0.0,0.0,0.0,0.0,0.0,0.0,0.0,0.0,0.0,0.0,0.244,0.592,0.04,0.0,0.0,0.0,0.0,0.0,0.0,0.0,0.0,0.0,0.307,6.472,3.77,0.0,0.0,0.0,0.0,0.0,0.0,0.0,0.0,0.0
1576083177697921660,361,0,,0.0,0.0,0.0,0.0,0.0,0.0,0.0,0.0,0.0,0.0,0.0,0.0,0.0,-0.471,0.341,-0.01,0.0,0.0,0.0,0.0,0.0,0.0,0.0,0.0,0.0,1.149,5.887,3.56,0.0,0.0,0.0,0.0,0.0,0.0,0.0,0.0,0.0
1576083177766586005,362,0,,0.0,0.0,0.0,0.0,0.0,0.0,0.0,0.0,0.0,0.0,0.0,0.0,0.0,0.422,1.314,-0.68,0.0,0.0,0.0,0.0,0.0,0.0,0.0,0.0,0.0,-1.306,5.33,4.03,0.0,0.0,0.0,0.0,0.0,0.0,0.0,0.0,0.0
1576083177834686270,363,0,,0.0,0.0,0.0,0.0,0.0,0.0,0.0,0.0,0.0,0.0,0.0,0.0,0.0,-0.255,1.181,-0.63,0.0,0.0,0.0,0.0,0.0,0.0,0.0,0.0,0.0,-0.199,6.79,5.67,0.0,0.0,0.0,0.0,0.0,0.0,0.0,0.0,0.0
1576083177903891205,364,0,,0.0,0.0,0.0,0.0,0.0,0.0,0.0,0.0,0.0,0.0,0.0,0.0,0.0,-0.969,0.09,-0.24,0.0,0.0,0.0,0.0,0.0,0.0,0.0,0.0,0.0,-2.163,4.069,10.17,0.0,0.0,0.0,0.0,0.0,0.0,0.0,0.0,0.0
1576083177978680906,365,0,,0.0,0.0,0.0,0.0,0.0,0.0,0.0,0.0,0.0,0.0,0.0,0.0,0.0,-2.864,-2.939,-0.45,0.0,0.0,0.0,0.0,0.0,0.0,0.0,0.0,0.0,1.574,6.403,7.2,0.0,0.0,0.0,0.0,0.0,0.0,0.0,0.0,0.0
1576083178034593045,366,0,,0.0,0.0,0.0,0.0,0.0,0.0,0.0,0.0,0.0,0.0,0.0,0.0,0.0,-1.801,-2.809,0.62,0.0,0.0,0.0,0.0,0.0,0.0,0.0,0.0,0.0,1.278,4.98,9.77,0.0,0.0,0.0,0.0,0.0,0.0,0.0,0.0,0.0
1576083178104011405,367,0,,0.0,0.0,0.0,0.0,0.0,0.0,0.0,0.0,0.0,0.0,0.0,0.0,0.0,-0.528,-2.685,0.33,0.0,0.0,0.0,0.0,0.0,0.0,0.0,0.0,0.0,2.949,4.992,12.21,0.0,0.0,0.0,0.0,0.0,0.0,0.0,0.0,0.0
1576083178177273037,368,0,,0.0,0.0,0.0,0.0,0.0,0.0,0.0,0.0,0.0,0.0,0.0,0.0,0.0,2.141,3.282,1.02,0.0,0.0,0.0,0.0,0.0,0.0,0.0,0.0,0.0,0.559,-0.204,14.4,0.0,0.0,0.0,0.0,0.0,0.0,0.0,0.0,0.0
1576083178237293699,369,0,,0.0,0.0,0.0,0.0,0.0,0.0,0.0,0.0,0.0,0.0,0.0,0.0,0.0,3.065,-1.36,1.26,0.0,0.0,0.0,0.0,0.0,0.0,0.0,0.0,0.0,0.782,2.041,6.08,0.0,0.0,0.0,0.0,0.0,0.0,0.0,0.0,0.0
1576083178304467950,370,0,,0.0,0.0,0.0,0.0,0.0,0.0,0.0,0.0,0.0,0.0,0.0,0.0,0.0,0.009,0.171,0.23,0.0,0.0,0.0,0.0,0.0,0.0,0.0,0.0,0.0,6.871,11.461,3.04,0.0,0.0,0.0,0.0,0.0,0.0,0.0,0.0,0.0
1576083178396343632,371,0,,0.0,0.0,0.0,0.0,0.0,0.0,0.0,0.0,0.0,0.0,0.0,0.0,0.0,-1.021,0.484,-0.09,0.0,0.0,0.0,0.0,0.0,0.0,0.0,0.0,0.0,2.472,5.508,8.51,0.0,0.0,0.0,0.0,0.0,0.0,0.0,0.0,0.0
1576083178435750255,372,0,,0.0,0.0,0.0,0.0,0.0,0.0,0.0,0.0,0.0,0.0,0.0,0.0,0.0,0.781,-2.384,0.11,0.0,0.0,0.0,0.0,0.0,0.0,0.0,0.0,0.0,0.909,4.585,7.24,0.0,0.0,0.0,0.0,0.0,0.0,0.0,0.0,0.0
1576083178507249586,373,0,,0.0,0.0,0.0,0.0,0.0,0.0,0.0,0.0,0.0,0.0,0.0,0.0,0.0,1.314,0.509,0.93,0.0,0.0,0.0,0.0,0.0,0.0,0.0,0.0,0.0,4.11,5.273,9.76,0.0,0.0,0.0,0.0,0.0,0.0,0.0,0.0,0.0
1576083178576192560,374,0,,0.0,0.0,0.0,0.0,0.0,0.0,0.0,0.0,0.0,0.0,0.0,0.0,0.0,1.913,0.693,0.2,0.0,0.0,0.0,0.0,0.0,0.0,0.0,0.0,0.0,4.519,6.905,4.97,0.0,0.0,0.0,0.0,0.0,0.0,0.0,0.0,0.0
1576083178699190080,375,0,,0.0,0.0,0.0,0.0,0.0,0.0,0.0,0.0,0.0,0.0,0.0,0.0,0.0,-1.021,1.812,0.08,0.0,0.0,0.0,0.0,0.0,0.0,0.0,0.0,0.0,0.662,4.965,8.35,0.0,0.0,0.0,0.0,0.0,0.0,0.0,0.0,0.0
1576083178775589926,376,0,,0.0,0.0,0.0,0.0,0.0,0.0,0.0,0.0,0.0,0.0,0.0,0.0,0.0,-1.686,1.828,0.32,0.0,0.0,0.0,0.0,0.0,0.0,0.0,0.0,0.0,-1.223,3.917,8.82,0.0,0.0,0.0,0.0,0.0,0.0,0.0,0.0,0.0
1576083178830369479,377,0,,0.0,0.0,0.0,0.0,0.0,0.0,0.0,0.0,0.0,0.0,0.0,0.0,0.0,-1.524,0.187,1.45,0.0,0.0,0.0,0.0,0.0,0.0,0.0,0.0,0.0,4.56,3.771,10.38,0.0,0.0,0.0,0.0,0.0,0.0,0.0,0.0,0.0
1576083178915670046,378,0,,0.0,0.0,0.0,0.0,0.0,0.0,0.0,0.0,0.0,0.0,0.0,0.0,0.0,-0.636,-0.105,2.19,0.0,0.0,0.0,0.0,0.0,0.0,0.0,0.0,0.0,1.003,3.369,8.56,0.0,0.0,0.0,0.0,0.0,0.0,0.0,0.0,0.0
1576083178975881821,379,0,,0.0,0.0,0.0,0.0,0.0,0.0,0.0,0.0,0.0,0.0,0.0,0.0,0.0,-0.041,-0.33,1.63,0.0,0.0,0.0,0.0,0.0,0.0,0.0,0.0,0.0,4.733,1.758,9.88,0.0,0.0,0.0,0.0,0.0,0.0,0.0,0.0,0.0
1576083179032035048,380,0,,0.0,0.0,0.0,0.0,0.0,0.0,0.0,0.0,0.0,0.0,0.0,0.0,0.0,-0.738,0.12,2.21,0.0,0.0,0.0,0.0,0.0,0.0,0.0,0.0,0.0,4.662,3.189,7.27,0.0,0.0,0.0,0.0,0.0,0.0,0.0,0.0,0.0
1576083179098177712,381,0,,0.0,0.0,0.0,0.0,0.0,0.0,0.0,0.0,0.0,0.0,0.0,0.0,0.0,1.459,-0.376,1.18,0.0,0.0,0.0,0.0,0.0,0.0,0.0,0.0,0.0,5.447,3.729,9.13,0.0,0.0,0.0,0.0,0.0,0.0,0.0,0.0,0.0
1576083179188103085,382,0,,0.0,0.0,0.0,0.0,0.0,0.0,0.0,0.0,0.0,0.0,0.0,0.0,0.0,-0.671,1.147,0.73,0.0,0.0,0.0,0.0,0.0,0.0,0.0,0.0,0.0,0.214,0.191,7.73,0.0,0.0,0.0,0.0,0.0,0.0,0.0,0.0,0.0
1576083179232075339,383,0,,0.0,0.0,0.0,0.0,0.0,0.0,0.0,0.0,0.0,0.0,0.0,0.0,0.0,-1.083,0.583,1.01,0.0,0.0,0.0,0.0,0.0,0.0,0.0,0.0,0.0,3.798,0.949,10.31,0.0,0.0,0.0,0.0,0.0,0.0,0.0,0.0,0.0
1576083179304234613,384,0,,0.0,0.0,0.0,0.0,0.0,0.0,0.0,0.0,0.0,0.0,0.0,0.0,0.0,-0.199,-0.663,1.32,0.0,0.0,0.0,0.0,0.0,0.0,0.0,0.0,0.0,2.689,0.109,10.06,0.0,0.0,0.0,0.0,0.0,0.0,0.0,0.0,0.0
1576083179370743104,385,0,,0.0,0.0,0.0,0.0,0.0,0.0,0.0,0.0,0.0,0.0,0.0,0.0,0.0,0.043,0.217,1.37,0.0,0.0,0.0,0.0,0.0,0.0,0.0,0.0,0.0,4.207,-1.111,9.53,0.0,0.0,0.0,0.0,0.0,0.0,0.0,0.0,0.0
1576083179433648479,386,0,,0.0,0.0,0.0,0.0,0.0,0.0,0.0,0.0,0.0,0.0,0.0,0.0,0.0,-0.801,0.091,1.87,0.0,0.0,0.0,0.0,0.0,0.0,0.0,0.0,0.0,3.504,0.492,10.37,0.0,0.0,0.0,0.0,0.0,0.0,0.0,0.0,0.0
1576083179502288711,387,0,,0.0,0.0,0.0,0.0,0.0,0.0,0.0,0.0,0.0,0.0,0.0,0.0,0.0,0.107,1.646,-0.02,0.0,0.0,0.0,0.0,0.0,0.0,0.0,0.0,0.0,1.45,-4.272,7.13,0.0,0.0,0.0,0.0,0.0,0.0,0.0,0.0,0.0
1576083179578256307,388,0,,0.0,0.0,0.0,0.0,0.0,0.0,0.0,0.0,0.0,0.0,0.0,0.0,0.0,0.325,-0.473,1.34,0.0,0.0,0.0,0.0,0.0,0.0,0.0,0.0,0.0,3.628,1.359,8.04,0.0,0.0,0.0,0.0,0.0,0.0,0.0,0.0,0.0
1576083179639981451,389,0,,0.0,0.0,0.0,0.0,0.0,0.0,0.0,0.0,0.0,0.0,0.0,0.0,0.0,0.278,0.481,1.85,0.0,0.0,0.0,0.0,0.0,0.0,0.0,0.0,0.0,3.533,1.2,-3.87,0.0,0.0,0.0,0.0,0.0,0.0,0.0,0.0,0.0
1576083179708599498,390,0,,0.0,0.0,0.0,0.0,0.0,0.0,0.0,0.0,0.0,0.0,0.0,0.0,0.0,0.817,-0.326,-0.87,0.0,0.0,0.0,0.0,0.0,0.0,0.0,0.0,0.0,5.492,-3.212,18.18,0.0,0.0,0.0,0.0,0.0,0.0,0.0,0.0,0.0
1576083179771879440,391,0,,0.0,0.0,0.0,0.0,0.0,0.0,0.0,0.0,0.0,0.0,0.0,0.0,0.0,0.62,-0.89,0.4,0.0,0.0,0.0,0.0,0.0,0.0,0.0,0.0,0.0,3.283,-2.28,10.09,0.0,0.0,0.0,0.0,0.0,0.0,0.0,0.0,0.0
1576083179896781229,392,0,,0.0,0.0,0.0,0.0,0.0,0.0,0.0,0.0,0.0,0.0,0.0,0.0,0.0,0.315,-1.244,0.15,0.0,0.0,0.0,0.0,0.0,0.0,0.0,0.0,0.0,1.548,1.007,4.99,0.0,0.0,0.0,0.0,0.0,0.0,0.0,0.0,0.0
1576083179972405189,393,0,,0.0,0.0,0.0,0.0,0.0,0.0,0.0,0.0,0.0,0.0,0.0,0.0,0.0,0.851,-1.336,-0.04,0.0,0.0,0.0,0.0,0.0,0.0,0.0,0.0,0.0,3.194,0.208,8.72,0.0,0.0,0.0,0.0,0.0,0.0,0.0,0.0,0.0
1576083180028309899,394,0,,0.0,0.0,0.0,0.0,0.0,0.0,0.0,0.0,0.0,0.0,0.0,0.0,0.0,0.322,3.256,0.88,0.0,0.0,0.0,0.0,0.0,0.0,0.0,0.0,0.0,0.508,-0.909,8.86,0.0,0.0,0.0,0.0,0.0,0.0,0.0,0.0,0.0
1576083180124414951,395,0,,0.0,0.0,0.0,0.0,0.0,0.0,0.0,0.0,0.0,0.0,0.0,0.0,0.0,-1.389,4.738,0.59,0.0,0.0,0.0,0.0,0.0,0.0,0.0,0.0,0.0,-0.07,0.021,7.85,0.0,0.0,0.0,0.0,0.0,0.0,0.0,0.0,0.0
1576083180195793267,396,0,,0.0,0.0,0.0,0.0,0.0,0.0,0.0,0.0,0.0,0.0,0.0,0.0,0.0,0.958,-1.312,1.51,0.0,0.0,0.0,0.0,0.0,0.0,0.0,0.0,0.0,-0.53,0.409,13.39,0.0,0.0,0.0,0.0,0.0,0.0,0.0,0.0,0.0
1576083180232253729,397,0,,0.0,0.0,0.0,0.0,0.0,0.0,0.0,0.0,0.0,0.0,0.0,0.0,0.0,0.786,-0.011,1.38,0.0,0.0,0.0,0.0,0.0,0.0,0.0,0.0,0.0,-1.043,1.088,8.65,0.0,0.0,0.0,0.0,0.0,0.0,0.0,0.0,0.0
1576083180300086281,398,0,,0.0,0.0,0.0,0.0,0.0,0.0,0.0,0.0,0.0,0.0,0.0,0.0,0.0,0.117,1.465,0.06,0.0,0.0,0.0,0.0,0.0,0.0,0.0,0.0,0.0,-0.651,0.283,8.93,0.0,0.0,0.0,0.0,0.0,0.0,0.0,0.0,0.0
1576083180370073594,399,0,,0.0,0.0,0.0,0.0,0.0,0.0,0.0,0.0,0.0,0.0,0.0,0.0,0.0,0.039,0.04,0.16,0.0,0.0,0.0,0.0,0.0,0.0,0.0,0.0,0.0,-0.547,0.742,8.62,0.0,0.0,0.0,0.0,0.0,0.0,0.0,0.0,0.0
1576083180431967332,400,0,,0.0,0.0,0.0,0.0,0.0,0.0,0.0,0.0,0.0,0.0,0.0,0.0,0.0,0.023,-0.022,0.03,0.0,0.0,0.0,0.0,0.0,0.0,0.0,0.0,0.0,-0.679,0.216,8.92,0.0,0.0,0.0,0.0,0.0,0.0,0.0,0.0,0.0
1576083180505226866,401,0,,0.0,0.0,0.0,0.0,0.0,0.0,0.0,0.0,0.0,0.0,0.0,0.0,0.0,-0.036,-0.0,0.02,0.0,0.0,0.0,0.0,0.0,0.0,0.0,0.0,0.0,-0.024,0.604,9.22,0.0,0.0,0.0,0.0,0.0,0.0,0.0,0.0,0.0
1576083180572213317,402,0,,0.0,0.0,0.0,0.0,0.0,0.0,0.0,0.0,0.0,0.0,0.0,0.0,0.0,-0.021,0.008,0.0,0.0,0.0,0.0,0.0,0.0,0.0,0.0,0.0,0.0,-1.125,-0.553,10.22,0.0,0.0,0.0,0.0,0.0,0.0,0.0,0.0,0.0
1576083180636208925,403,0,,0.0,0.0,0.0,0.0,0.0,0.0,0.0,0.0,0.0,0.0,0.0,0.0,0.0,0.005,-0.048,-0.08,0.0,0.0,0.0,0.0,0.0,0.0,0.0,0.0,0.0,-0.471,0.358,9.43,0.0,0.0,0.0,0.0,0.0,0.0,0.0,0.0,0.0
1576083180767556690,404,0,,0.0,0.0,0.0,0.0,0.0,0.0,0.0,0.0,0.0,0.0,0.0,0.0,0.0,-0.015,-0.0,-0.12,0.0,0.0,0.0,0.0,0.0,0.0,0.0,0.0,0.0,-0.288,-0.58,8.06,0.0,0.0,0.0,0.0,0.0,0.0,0.0,0.0,0.0
1576083180837937251,405,0,,0.0,0.0,0.0,0.0,0.0,0.0,0.0,0.0,0.0,0.0,0.0,0.0,0.0,0.034,-0.014,-0.08,0.0,0.0,0.0,0.0,0.0,0.0,0.0,0.0,0.0,-0.263,0.169,11.71,0.0,0.0,0.0,0.0,0.0,0.0,0.0,0.0,0.0
1576083180917453148,406,0,,0.0,0.0,0.0,0.0,0.0,0.0,0.0,0.0,0.0,0.0,0.0,0.0,0.0,-0.007,-0.024,-0.06,0.0,0.0,0.0,0.0,0.0,0.0,0.0,0.0,0.0,-0.694,0.068,9.72,0.0,0.0,0.0,0.0,0.0,0.0,0.0,0.0,0.0
1576083180971655078,407,0,,0.0,0.0,0.0,0.0,0.0,0.0,0.0,0.0,0.0,0.0,0.0,0.0,0.0,0.003,-0.018,-0.03,0.0,0.0,0.0,0.0,0.0,0.0,0.0,0.0,0.0,-0.74,0.095,11.64,0.0,0.0,0.0,0.0,0.0,0.0,0.0,0.0,0.0
1576083181042151546,408,0,,0.0,0.0,0.0,0.0,0.0,0.0,0.0,0.0,0.0,0.0,0.0,0.0,0.0,0.025,-0.03,-0.0,0.0,0.0,0.0,0.0,0.0,0.0,0.0,0.0,0.0,-0.308,0.126,7.83,0.0,0.0,0.0,0.0,0.0,0.0,0.0,0.0,0.0
1576083181170390913,409,0,,0.0,0.0,0.0,0.0,0.0,0.0,0.0,0.0,0.0,0.0,0.0,0.0,0.0,0.01,-0.087,0.02,0.0,0.0,0.0,0.0,0.0,0.0,0.0,0.0,0.0,0.945,0.786,11.19,0.0,0.0,0.0,0.0,0.0,0.0,0.0,0.0,0.0
1576083181231247173,410,0,,0.0,0.0,0.0,0.0,0.0,0.0,0.0,0.0,0.0,0.0,0.0,0.0,0.0,-0.073,0.038,-0.12,0.0,0.0,0.0,0.0,0.0,0.0,0.0,0.0,0.0,-1.439,-0.982,14.07,0.0,0.0,0.0,0.0,0.0,0.0,0.0,0.0,0.0
1576083181300386628,411,0,,0.0,0.0,0.0,0.0,0.0,0.0,0.0,0.0,0.0,0.0,0.0,0.0,0.0,0.033,-0.005,-0.14,0.0,0.0,0.0,0.0,0.0,0.0,0.0,0.0,0.0,-2.167,1.283,11.0,0.0,0.0,0.0,0.0,0.0,0.0,0.0,0.0,0.0
1576083181370592516,412,0,,0.0,0.0,0.0,0.0,0.0,0.0,0.0,0.0,0.0,0.0,0.0,0.0,0.0,-0.102,-0.037,0.0,0.0,0.0,0.0,0.0,0.0,0.0,0.0,0.0,0.0,-0.44,-1.738,10.3,0.0,0.0,0.0,0.0,0.0,0.0,0.0,0.0,0.0
1576083181430729847,413,0,,0.0,0.0,0.0,0.0,0.0,0.0,0.0,0.0,0.0,0.0,0.0,0.0,0.0,-0.145,-0.046,0.08,0.0,0.0,0.0,0.0,0.0,0.0,0.0,0.0,0.0,-2.171,0.361,12.91,0.0,0.0,0.0,0.0,0.0,0.0,0.0,0.0,0.0
1576083181500628387,414,0,,0.0,0.0,0.0,0.0,0.0,0.0,0.0,0.0,0.0,0.0,0.0,0.0,0.0,0.059,-0.033,-0.04,0.0,0.0,0.0,0.0,0.0,0.0,0.0,0.0,0.0,-1.159,-0.071,6.27,0.0,0.0,0.0,0.0,0.0,0.0,0.0,0.0,0.0
1576083181569684833,415,0,,0.0,0.0,0.0,0.0,0.0,0.0,0.0,0.0,0.0,0.0,0.0,0.0,0.0,0.038,0.029,0.19,0.0,0.0,0.0,0.0,0.0,0.0,0.0,0.0,0.0,-0.784,-0.639,5.13,0.0,0.0,0.0,0.0,0.0,0.0,0.0,0.0,0.0
1576083181631900274,416,0,,0.0,0.0,0.0,0.0,0.0,0.0,0.0,0.0,0.0,0.0,0.0,0.0,0.0,-0.142,-0.043,0.5,0.0,0.0,0.0,0.0,0.0,0.0,0.0,0.0,0.0,-1.337,0.266,12.35,0.0,0.0,0.0,0.0,0.0,0.0,0.0,0.0,0.0
1576083181699722730,417,0,,0.0,0.0,0.0,0.0,0.0,0.0,0.0,0.0,0.0,0.0,0.0,0.0,0.0,0.124,-0.032,0.65,0.0,0.0,0.0,0.0,0.0,0.0,0.0,0.0,0.0,-0.274,-0.799,12.0,0.0,0.0,0.0,0.0,0.0,0.0,0.0,0.0,0.0
1576083181769008111,418,0,,0.0,0.0,0.0,0.0,0.0,0.0,0.0,0.0,0.0,0.0,0.0,0.0,0.0,0.134,0.061,0.68,0.0,0.0,0.0,0.0,0.0,0.0,0.0,0.0,0.0,-1.999,1.787,8.58,0.0,0.0,0.0,0.0,0.0,0.0,0.0,0.0,0.0
1576083181851293645,419,0,,0.0,0.0,0.0,0.0,0.0,0.0,0.0,0.0,0.0,0.0,0.0,0.0,0.0,-0.099,-0.053,0.65,0.0,0.0,0.0,0.0,0.0,0.0,0.0,0.0,0.0,-1.649,-1.4,12.15,0.0,0.0,0.0,0.0,0.0,0.0,0.0,0.0,0.0
1576083181901605343,420,0,,0.0,0.0,0.0,0.0,0.0,0.0,0.0,0.0,0.0,0.0,0.0,0.0,0.0,-0.035,-0.019,0.62,0.0,0.0,0.0,0.0,0.0,0.0,0.0,0.0,0.0,-0.742,1.162,8.58,0.0,0.0,0.0,0.0,0.0,0.0,0.0,0.0,0.0
1576083181971176961,421,0,,0.0,0.0,0.0,0.0,0.0,0.0,0.0,0.0,0.0,0.0,0.0,0.0,0.0,-0.001,-0.019,0.49,0.0,0.0,0.0,0.0,0.0,0.0,0.0,0.0,0.0,-1.324,-0.212,11.11,0.0,0.0,0.0,0.0,0.0,0.0,0.0,0.0,0.0
1576083182038588663,422,0,,0.0,0.0,0.0,0.0,0.0,0.0,0.0,0.0,0.0,0.0,0.0,0.0,0.0,0.005,-0.004,0.43,0.0,0.0,0.0,0.0,0.0,0.0,0.0,0.0,0.0,-1.108,-0.261,10.56,0.0,0.0,0.0,0.0,0.0,0.0,0.0,0.0,0.0
1576083182106813520,423,0,,0.0,0.0,0.0,0.0,0.0,0.0,0.0,0.0,0.0,0.0,0.0,0.0,0.0,0.0,-0.014,0.4,0.0,0.0,0.0,0.0,0.0,0.0,0.0,0.0,0.0,-0.794,0.622,8.24,0.0,0.0,0.0,0.0,0.0,0.0,0.0,0.0,0.0
1576083182170603426,424,0,,0.0,0.0,0.0,0.0,0.0,0.0,0.0,0.0,0.0,0.0,0.0,0.0,0.0,0.0,-0.006,0.38,0.0,0.0,0.0,0.0,0.0,0.0,0.0,0.0,0.0,-0.695,0.302,11.49,0.0,0.0,0.0,0.0,0.0,0.0,0.0,0.0,0.0
1576083182240095447,425,0,,0.0,0.0,0.0,0.0,0.0,0.0,0.0,0.0,0.0,0.0,0.0,0.0,0.0,0.039,-0.014,0.39,0.0,0.0,0.0,0.0,0.0,0.0,0.0,0.0,0.0,-1.202,0.519,9.56,0.0,0.0,0.0,0.0,0.0,0.0,0.0,0.0,0.0
1576083182371419289,426,0,,0.0,0.0,0.0,0.0,0.0,0.0,0.0,0.0,0.0,0.0,0.0,0.0,0.0,-0.008,0.016,0.44,0.0,0.0,0.0,0.0,0.0,0.0,0.0,0.0,0.0,-1.842,-0.273,9.83,0.0,0.0,0.0,0.0,0.0,0.0,0.0,0.0,0.0
1576083182432422591,427,0,,0.0,0.0,0.0,0.0,0.0,0.0,0.0,0.0,0.0,0.0,0.0,0.0,0.0,0.052,-0.026,0.43,0.0,0.0,0.0,0.0,0.0,0.0,0.0,0.0,0.0,-0.491,1.224,10.41,0.0,0.0,0.0,0.0,0.0,0.0,0.0,0.0,0.0
1576083182502638997,428,0,,0.0,0.0,0.0,0.0,0.0,0.0,0.0,0.0,0.0,0.0,0.0,0.0,0.0,0.066,-0.001,0.46,0.0,0.0,0.0,0.0,0.0,0.0,0.0,0.0,0.0,-1.256,0.283,8.69,0.0,0.0,0.0,0.0,0.0,0.0,0.0,0.0,0.0
1576083182571201656,429,0,,0.0,0.0,0.0,0.0,0.0,0.0,0.0,0.0,0.0,0.0,0.0,0.0,0.0,-0.001,0.025,0.5,0.0,0.0,0.0,0.0,0.0,0.0,0.0,0.0,0.0,-1.468,0.526,6.88,0.0,0.0,0.0,0.0,0.0,0.0,0.0,0.0,0.0
1576083182662530934,430,0,,0.0,0.0,0.0,0.0,0.0,0.0,0.0,0.0,0.0,0.0,0.0,0.0,0.0,0.041,-0.013,0.5,0.0,0.0,0.0,0.0,0.0,0.0,0.0,0.0,0.0,-1.178,0.635,9.53,0.0,0.0,0.0,0.0,0.0,0.0,0.0,0.0,0.0
1576083182697348956,431,0,,0.0,0.0,0.0,0.0,0.0,0.0,0.0,0.0,0.0,0.0,0.0,0.0,0.0,-0.027,0.013,0.46,0.0,0.0,0.0,0.0,0.0,0.0,0.0,0.0,0.0,-1.801,0.527,9.41,0.0,0.0,0.0,0.0,0.0,0.0,0.0,0.0,0.0
1576083182771857056,432,0,,0.0,0.0,0.0,0.0,0.0,0.0,0.0,0.0,0.0,0.0,0.0,0.0,0.0,-0.01,0.028,0.4,0.0,0.0,0.0,0.0,0.0,0.0,0.0,0.0,0.0,-1.092,0.969,9.41,0.0,0.0,0.0,0.0,0.0,0.0,0.0,0.0,0.0
1576083182835203313,433,0,,0.0,0.0,0.0,0.0,0.0,0.0,0.0,0.0,0.0,0.0,0.0,0.0,0.0,0.037,-0.03,0.33,0.0,0.0,0.0,0.0,0.0,0.0,0.0,0.0,0.0,-0.53,1.175,10.0,0.0,0.0,0.0,0.0,0.0,0.0,0.0,0.0,0.0
1576083182900867403,434,0,,0.0,0.0,0.0,0.0,0.0,0.0,0.0,0.0,0.0,0.0,0.0,0.0,0.0,-0.03,0.018,0.32,0.0,0.0,0.0,0.0,0.0,0.0,0.0,0.0,0.0,-1.273,-0.069,8.01,0.0,0.0,0.0,0.0,0.0,0.0,0.0,0.0,0.0
1576083182972453904,435,0,,0.0,0.0,0.0,0.0,0.0,0.0,0.0,0.0,0.0,0.0,0.0,0.0,0.0,-0.002,0.007,0.31,0.0,0.0,0.0,0.0,0.0,0.0,0.0,0.0,0.0,-1.06,0.927,6.93,0.0,0.0,0.0,0.0,0.0,0.0,0.0,0.0,0.0
1576083183038875826,436,0,,0.0,0.0,0.0,0.0,0.0,0.0,0.0,0.0,0.0,0.0,0.0,0.0,0.0,-0.039,-0.014,0.25,0.0,0.0,0.0,0.0,0.0,0.0,0.0,0.0,0.0,-1.187,0.38,8.43,0.0,0.0,0.0,0.0,0.0,0.0,0.0,0.0,0.0
1576083183101706031,437,0,,0.0,0.0,0.0,0.0,0.0,0.0,0.0,0.0,0.0,0.0,0.0,0.0,0.0,-0.034,0.01,0.28,0.0,0.0,0.0,0.0,0.0,0.0,0.0,0.0,0.0,-1.318,0.515,11.05,0.0,0.0,0.0,0.0,0.0,0.0,0.0,0.0,0.0
1576083183170269980,438,0,,0.0,0.0,0.0,0.0,0.0,0.0,0.0,0.0,0.0,0.0,0.0,0.0,0.0,-0.039,-0.005,0.23,0.0,0.0,0.0,0.0,0.0,0.0,0.0,0.0,0.0,-0.775,0.296,12.63,0.0,0.0,0.0,0.0,0.0,0.0,0.0,0.0,0.0
1576083183235973696,439,0,,0.0,0.0,0.0,0.0,0.0,0.0,0.0,0.0,0.0,0.0,0.0,0.0,0.0,0.018,0.023,0.24,0.0,0.0,0.0,0.0,0.0,0.0,0.0,0.0,0.0,-0.965,-0.194,8.57,0.0,0.0,0.0,0.0,0.0,0.0,0.0,0.0,0.0
1576083183305645855,440,0,,0.0,0.0,0.0,0.0,0.0,0.0,0.0,0.0,0.0,0.0,0.0,0.0,0.0,0.014,-0.015,0.22,0.0,0.0,0.0,0.0,0.0,0.0,0.0,0.0,0.0,-1.159,1.061,11.7,0.0,0.0,0.0,0.0,0.0,0.0,0.0,0.0,0.0
1576083183368998204,441,0,,0.0,0.0,0.0,0.0,0.0,0.0,0.0,0.0,0.0,0.0,0.0,0.0,0.0,0.044,0.0,0.21,0.0,0.0,0.0,0.0,0.0,0.0,0.0,0.0,0.0,-0.455,0.138,13.4,0.0,0.0,0.0,0.0,0.0,0.0,0.0,0.0,0.0
1576083183439229028,442,0,,0.0,0.0,0.0,0.0,0.0,0.0,0.0,0.0,0.0,0.0,0.0,0.0,0.0,-0.001,-0.009,0.18,0.0,0.0,0.0,0.0,0.0,0.0,0.0,0.0,0.0,-1.032,1.446,10.44,0.0,0.0,0.0,0.0,0.0,0.0,0.0,0.0,0.0
1576083183507784502,443,0,,0.0,0.0,0.0,0.0,0.0,0.0,0.0,0.0,0.0,0.0,0.0,0.0,0.0,-0.063,-0.011,0.11,0.0,0.0,0.0,0.0,0.0,0.0,0.0,0.0,0.0,-1.501,0.201,20.88,0.0,0.0,0.0,0.0,0.0,0.0,0.0,0.0,0.0
1576083183628909396,444,0,,0.0,0.0,0.0,0.0,0.0,0.0,0.0,0.0,0.0,0.0,0.0,0.0,0.0,-0.039,-0.004,0.1,0.0,0.0,0.0,0.0,0.0,0.0,0.0,0.0,0.0,-0.434,1.291,10.39,0.0,0.0,0.0,0.0,0.0,0.0,0.0,0.0,0.0
1576083183695991581,445,0,,0.0,0.0,0.0,0.0,0.0,0.0,0.0,0.0,0.0,0.0,0.0,0.0,0.0,0.0,0.007,0.07,0.0,0.0,0.0,0.0,0.0,0.0,0.0,0.0,0.0,-1.169,-0.017,14.18,0.0,0.0,0.0,0.0,0.0,0.0,0.0,0.0,0.0
1576083183782414393,446,0,,0.0,0.0,0.0,0.0,0.0,0.0,0.0,0.0,0.0,0.0,0.0,0.0,0.0,0.062,-0.023,0.02,0.0,0.0,0.0,0.0,0.0,0.0,0.0,0.0,0.0,1.109,2.052,11.37,0.0,0.0,0.0,0.0,0.0,0.0,0.0,0.0,0.0
1576083183830228794,447,0,,0.0,0.0,0.0,0.0,0.0,0.0,0.0,0.0,0.0,0.0,0.0,0.0,0.0,-0.065,-0.015,-0.16,0.0,0.0,0.0,0.0,0.0,0.0,0.0,0.0,0.0,-0.253,-1.02,7.16,0.0,0.0,0.0,0.0,0.0,0.0,0.0,0.0,0.0
1576083183899147634,448,0,,0.0,0.0,0.0,0.0,0.0,0.0,0.0,0.0,0.0,0.0,0.0,0.0,0.0,0.031,-0.004,0.03,0.0,0.0,0.0,0.0,0.0,0.0,0.0,0.0,0.0,-0.932,1.628,10.02,0.0,0.0,0.0,0.0,0.0,0.0,0.0,0.0,0.0
1576083183973712089,449,0,,0.0,0.0,0.0,0.0,0.0,0.0,0.0,0.0,0.0,0.0,0.0,0.0,0.0,0.061,-0.009,-0.06,0.0,0.0,0.0,0.0,0.0,0.0,0.0,0.0,0.0,-0.008,-1.189,11.1,0.0,0.0,0.0,0.0,0.0,0.0,0.0,0.0,0.0
1576083184030961480,450,0,,0.0,0.0,0.0,0.0,0.0,0.0,0.0,0.0,0.0,0.0,0.0,0.0,0.0,-0.026,-0.012,-0.06,0.0,0.0,0.0,0.0,0.0,0.0,0.0,0.0,0.0,0.026,0.573,6.27,0.0,0.0,0.0,0.0,0.0,0.0,0.0,0.0,0.0
1576083184098957533,451,0,,0.0,0.0,0.0,0.0,0.0,0.0,0.0,0.0,0.0,0.0,0.0,0.0,0.0,0.015,0.018,0.07,0.0,0.0,0.0,0.0,0.0,0.0,0.0,0.0,0.0,-0.134,0.04,3.27,0.0,0.0,0.0,0.0,0.0,0.0,0.0,0.0,0.0
1576083184169131009,452,0,,0.0,0.0,0.0,0.0,0.0,0.0,0.0,0.0,0.0,0.0,0.0,0.0,0.0,-0.0,0.0,0.06,0.0,0.0,0.0,0.0,0.0,0.0,0.0,0.0,0.0,1.086,0.203,7.72,0.0,0.0,0.0,0.0,0.0,0.0,0.0,0.0,0.0
1576083184232383780,453,0,,0.0,0.0,0.0,0.0,0.0,0.0,0.0,0.0,0.0,0.0,0.0,0.0,0.0,0.001,0.004,0.06,0.0,0.0,0.0,0.0,0.0,0.0,0.0,0.0,0.0,-0.314,0.647,10.54,0.0,0.0,0.0,0.0,0.0,0.0,0.0,0.0,0.0
1576083184304922634,454,0,,0.0,0.0,0.0,0.0,0.0,0.0,0.0,0.0,0.0,0.0,0.0,0.0,0.0,0.046,0.011,0.09,0.0,0.0,0.0,0.0,0.0,0.0,0.0,0.0,0.0,-0.616,-0.122,8.22,0.0,0.0,0.0,0.0,0.0,0.0,0.0,0.0,0.0
1576083184371268361,455,0,,0.0,0.0,0.0,0.0,0.0,0.0,0.0,0.0,0.0,0.0,0.0,0.0,0.0,0.045,-0.012,0.11,0.0,0.0,0.0,0.0,0.0,0.0,0.0,0.0,0.0,-0.797,0.942,10.34,0.0,0.0,0.0,0.0,0.0,0.0,0.0,0.0,0.0
1576083184440124807,456,0,,0.0,0.0,0.0,0.0,0.0,0.0,0.0,0.0,0.0,0.0,0.0,0.0,0.0,0.006,-0.013,0.13,0.0,0.0,0.0,0.0,0.0,0.0,0.0,0.0,0.0,-0.997,-0.545,8.84,0.0,0.0,0.0,0.0,0.0,0.0,0.0,0.0,0.0
1576083184503247709,457,0,,0.0,0.0,0.0,0.0,0.0,0.0,0.0,0.0,0.0,0.0,0.0,0.0,0.0,-0.016,0.012,0.12,0.0,0.0,0.0,0.0,0.0,0.0,0.0,0.0,0.0,-0.794,-0.049,3.38,0.0,0.0,0.0,0.0,0.0,0.0,0.0,0.0,0.0
1576083184570936613,458,0,,0.0,0.0,0.0,0.0,0.0,0.0,0.0,0.0,0.0,0.0,0.0,0.0,0.0,0.055,-0.014,0.13,0.0,0.0,0.0,0.0,0.0,0.0,0.0,0.0,0.0,0.329,-1.724,11.38,0.0,0.0,0.0,0.0,0.0,0.0,0.0,0.0,0.0
1576083184638559552,459,0,,0.0,0.0,0.0,0.0,0.0,0.0,0.0,0.0,0.0,0.0,0.0,0.0,0.0,0.036,-0.01,0.13,0.0,0.0,0.0,0.0,0.0,0.0,0.0,0.0,0.0,-0.124,0.635,12.61,0.0,0.0,0.0,0.0,0.0,0.0,0.0,0.0,0.0
1576083184707520890,460,0,,0.0,0.0,0.0,0.0,0.0,0.0,0.0,0.0,0.0,0.0,0.0,0.0,0.0,0.036,0.004,0.09,0.0,0.0,0.0,0.0,0.0,0.0,0.0,0.0,0.0,0.103,1.002,9.15,0.0,0.0,0.0,0.0,0.0,0.0,0.0,0.0,0.0
1576083184830065595,461,0,,0.0,0.0,0.0,0.0,0.0,0.0,0.0,0.0,0.0,0.0,0.0,0.0,0.0,-0.006,0.005,0.07,0.0,0.0,0.0,0.0,0.0,0.0,0.0,0.0,0.0,0.409,0.09,9.82,0.0,0.0,0.0,0.0,0.0,0.0,0.0,0.0,0.0
1576083184899398936,462,0,,0.0,0.0,0.0,0.0,0.0,0.0,0.0,0.0,0.0,0.0,0.0,0.0,0.0,-0.06,0.054,0.1,0.0,0.0,0.0,0.0,0.0,0.0,0.0,0.0,0.0,-0.764,0.671,8.27,0.0,0.0,0.0,0.0,0.0,0.0,0.0,0.0,0.0
1576083184969125473,463,0,,0.0,0.0,0.0,0.0,0.0,0.0,0.0,0.0,0.0,0.0,0.0,0.0,0.0,-0.004,-0.063,0.22,0.0,0.0,0.0,0.0,0.0,0.0,0.0,0.0,0.0,0.793,1.486,9.79,0.0,0.0,0.0,0.0,0.0,0.0,0.0,0.0,0.0
1576083185031587385,464,0,,0.0,0.0,0.0,0.0,0.0,0.0,0.0,0.0,0.0,0.0,0.0,0.0,0.0,0.088,0.002,0.12,0.0,0.0,0.0,0.0,0.0,0.0,0.0,0.0,0.0,-0.089,0.796,19.24,0.0,0.0,0.0,0.0,0.0,0.0,0.0,0.0,0.0
1576083185107804905,465,0,,0.0,0.0,0.0,0.0,0.0,0.0,0.0,0.0,0.0,0.0,0.0,0.0,0.0,-0.409,0.138,0.06,0.0,0.0,0.0,0.0,0.0,0.0,0.0,0.0,0.0,-0.868,0.263,5.5,0.0,0.0,0.0,0.0,0.0,0.0,0.0,0.0,0.0
1576083185167349485,466,0,,0.0,0.0,0.0,0.0,0.0,0.0,0.0,0.0,0.0,0.0,0.0,0.0,0.0,0.38,-0.115,-0.22,0.0,0.0,0.0,0.0,0.0,0.0,0.0,0.0,0.0,-0.156,0.709,7.16,0.0,0.0,0.0,0.0,0.0,0.0,0.0,0.0,0.0
1576083185231337324,467,0,,0.0,0.0,0.0,0.0,0.0,0.0,0.0,0.0,0.0,0.0,0.0,0.0,0.0,-0.124,0.002,-0.33,0.0,0.0,0.0,0.0,0.0,0.0,0.0,0.0,0.0,-0.151,-0.288,11.9,0.0,0.0,0.0,0.0,0.0,0.0,0.0,0.0,0.0
1576083185317986949,468,0,,0.0,0.0,0.0,0.0,0.0,0.0,0.0,0.0,0.0,0.0,0.0,0.0,0.0,0.134,-0.049,-0.05,0.0,0.0,0.0,0.0,0.0,0.0,0.0,0.0,0.0,-0.279,1.254,10.36,0.0,0.0,0.0,0.0,0.0,0.0,0.0,0.0,0.0
1576083185369220299,469,0,,0.0,0.0,0.0,0.0,0.0,0.0,0.0,0.0,0.0,0.0,0.0,0.0,0.0,0.014,0.012,-0.1,0.0,0.0,0.0,0.0,0.0,0.0,0.0,0.0,0.0,-0.379,0.131,4.78,0.0,0.0,0.0,0.0,0.0,0.0,0.0,0.0,0.0
1576083185434778468,470,0,,0.0,0.0,0.0,0.0,0.0,0.0,0.0,0.0,0.0,0.0,0.0,0.0,0.0,-0.021,-0.01,-0.15,0.0,0.0,0.0,0.0,0.0,0.0,0.0,0.0,0.0,0.482,0.597,10.03,0.0,0.0,0.0,0.0,0.0,0.0,0.0,0.0,0.0
1576083185502112190,471,0,,0.0,0.0,0.0,0.0,0.0,0.0,0.0,0.0,0.0,0.0,0.0,0.0,0.0,0.034,0.004,-0.18,0.0,0.0,0.0,0.0,0.0,0.0,0.0,0.0,0.0,0.243,-0.29,8.96,0.0,0.0,0.0,0.0,0.0,0.0,0.0,0.0,0.0
1576083185568434802,472,0,,0.0,0.0,0.0,0.0,0.0,0.0,0.0,0.0,0.0,0.0,0.0,0.0,0.0,-0.019,0.005,-0.2,0.0,0.0,0.0,0.0,0.0,0.0,0.0,0.0,0.0,-0.341,0.712,14.38,0.0,0.0,0.0,0.0,0.0,0.0,0.0,0.0,0.0
1576083185703862827,473,0,,0.0,0.0,0.0,0.0,0.0,0.0,0.0,0.0,0.0,0.0,0.0,0.0,0.0,0.01,-0.001,-0.15,0.0,0.0,0.0,0.0,0.0,0.0,0.0,0.0,0.0,-0.685,0.96,10.54,0.0,0.0,0.0,0.0,0.0,0.0,0.0,0.0,0.0
1576083185774695701,474,0,,0.0,0.0,0.0,0.0,0.0,0.0,0.0,0.0,0.0,0.0,0.0,0.0,0.0,-0.059,0.006,-0.04,0.0,0.0,0.0,0.0,0.0,0.0,0.0,0.0,0.0,-0.253,-0.757,7.53,0.0,0.0,0.0,0.0,0.0,0.0,0.0,0.0,0.0
1576083185909219485,475,0,,0.0,0.0,0.0,0.0,0.0,0.0,0.0,0.0,0.0,0.0,0.0,0.0,0.0,-0.039,0.004,0.11,0.0,0.0,0.0,0.0,0.0,0.0,0.0,0.0,0.0,-0.346,-0.81,7.61,0.0,0.0,0.0,0.0,0.0,0.0,0.0,0.0,0.0
1576083185973645423,476,0,,0.0,0.0,0.0,0.0,0.0,0.0,0.0,0.0,0.0,0.0,0.0,0.0,0.0,0.048,0.006,0.12,0.0,0.0,0.0,0.0,0.0,0.0,0.0,0.0,0.0,-0.42,0.531,10.6,0.0,0.0,0.0,0.0,0.0,0.0,0.0,0.0,0.0
1576083186096981268,477,0,,0.0,0.0,0.0,0.0,0.0,0.0,0.0,0.0,0.0,0.0,0.0,0.0,0.0,0.018,0.005,0.13,0.0,0.0,0.0,0.0,0.0,0.0,0.0,0.0,0.0,-1.243,0.132,14.55,0.0,0.0,0.0,0.0,0.0,0.0,0.0,0.0,0.0
1576083186337775484,478,0,,0.0,0.0,0.0,0.0,0.0,0.0,0.0,0.0,0.0,0.0,0.0,0.0,0.0,0.027,-0.016,0.11,0.0,0.0,0.0,0.0,0.0,0.0,0.0,0.0,0.0,-0.196,1.837,10.17,0.0,0.0,0.0,0.0,0.0,0.0,0.0,0.0,0.0
1576083186338489066,479,0,,0.0,0.0,0.0,0.0,0.0,0.0,0.0,0.0,0.0,0.0,0.0,0.0,0.0,0.112,0.026,0.06,0.0,0.0,0.0,0.0,0.0,0.0,0.0,0.0,0.0,0.112,-0.054,5.98,0.0,0.0,0.0,0.0,0.0,0.0,0.0,0.0,0.0
1576083186338979998,480,0,,0.0,0.0,0.0,0.0,0.0,0.0,0.0,0.0,0.0,0.0,0.0,0.0,0.0,-0.056,-0.067,0.01,0.0,0.0,0.0,0.0,0.0,0.0,0.0,0.0,0.0,-0.009,0.487,12.77,0.0,0.0,0.0,0.0,0.0,0.0,0.0,0.0,0.0
1576083186369461152,481,0,,0.0,0.0,0.0,0.0,0.0,0.0,0.0,0.0,0.0,0.0,0.0,0.0,0.0,0.075,0.068,0.12,0.0,0.0,0.0,0.0,0.0,0.0,0.0,0.0,0.0,-0.529,-0.464,12.13,0.0,0.0,0.0,0.0,0.0,0.0,0.0,0.0,0.0
1576083186432183566,482,0,,0.0,0.0,0.0,0.0,0.0,0.0,0.0,0.0,0.0,0.0,0.0,0.0,0.0,-0.122,0.008,-0.12,0.0,0.0,0.0,0.0,0.0,0.0,0.0,0.0,0.0,0.045,0.301,8.18,0.0,0.0,0.0,0.0,0.0,0.0,0.0,0.0,0.0
1576083186499068121,483,0,,0.0,0.0,0.0,0.0,0.0,0.0,0.0,0.0,0.0,0.0,0.0,0.0,0.0,0.09,-0.01,-0.07,0.0,0.0,0.0,0.0,0.0,0.0,0.0,0.0,0.0,0.168,0.841,12.74,0.0,0.0,0.0,0.0,0.0,0.0,0.0,0.0,0.0
1576083186592927309,484,0,,0.0,0.0,0.0,0.0,0.0,0.0,0.0,0.0,0.0,0.0,0.0,0.0,0.0,-0.067,-0.003,-0.1,0.0,0.0,0.0,0.0,0.0,0.0,0.0,0.0,0.0,0.035,-0.429,10.3,0.0,0.0,0.0,0.0,0.0,0.0,0.0,0.0,0.0
1576083186633966770,485,0,,0.0,0.0,0.0,0.0,0.0,0.0,0.0,0.0,0.0,0.0,0.0,0.0,0.0,0.069,0.008,-0.08,0.0,0.0,0.0,0.0,0.0,0.0,0.0,0.0,0.0,0.791,1.096,12.7,0.0,0.0,0.0,0.0,0.0,0.0,0.0,0.0,0.0
1576083186702697347,486,0,,0.0,0.0,0.0,0.0,0.0,0.0,0.0,0.0,0.0,0.0,0.0,0.0,0.0,-0.025,-0.0,-0.04,0.0,0.0,0.0,0.0,0.0,0.0,0.0,0.0,0.0,0.706,-0.258,10.61,0.0,0.0,0.0,0.0,0.0,0.0,0.0,0.0,0.0
1576083186768206573,487,0,,0.0,0.0,0.0,0.0,0.0,0.0,0.0,0.0,0.0,0.0,0.0,0.0,0.0,0.012,0.009,0.0,0.0,0.0,0.0,0.0,0.0,0.0,0.0,0.0,0.0,-0.669,0.792,8.09,0.0,0.0,0.0,0.0,0.0,0.0,0.0,0.0,0.0
1576083186834514838,488,0,,0.0,0.0,0.0,0.0,0.0,0.0,0.0,0.0,0.0,0.0,0.0,0.0,0.0,-0.01,0.006,0.01,0.0,0.0,0.0,0.0,0.0,0.0,0.0,0.0,0.0,-0.047,0.025,13.03,0.0,0.0,0.0,0.0,0.0,0.0,0.0,0.0,0.0
1576083186907888804,489,0,,0.0,0.0,0.0,0.0,0.0,0.0,0.0,0.0,0.0,0.0,0.0,0.0,0.0,0.004,-0.015,0.01,0.0,0.0,0.0,0.0,0.0,0.0,0.0,0.0,0.0,-0.662,0.387,10.44,0.0,0.0,0.0,0.0,0.0,0.0,0.0,0.0,0.0
1576083186968728443,490,0,,0.0,0.0,0.0,0.0,0.0,0.0,0.0,0.0,0.0,0.0,0.0,0.0,0.0,-0.014,0.006,0.03,0.0,0.0,0.0,0.0,0.0,0.0,0.0,0.0,0.0,-1.04,-0.197,7.06,0.0,0.0,0.0,0.0,0.0,0.0,0.0,0.0,0.0
1576083187057248748,491,0,,0.0,0.0,0.0,0.0,0.0,0.0,0.0,0.0,0.0,0.0,0.0,0.0,0.0,0.037,0.018,0.05,0.0,0.0,0.0,0.0,0.0,0.0,0.0,0.0,0.0,-0.046,0.45,11.6,0.0,0.0,0.0,0.0,0.0,0.0,0.0,0.0,0.0
1576083187106557283,492,0,,0.0,0.0,0.0,0.0,0.0,0.0,0.0,0.0,0.0,0.0,0.0,0.0,0.0,0.041,-0.01,0.07,0.0,0.0,0.0,0.0,0.0,0.0,0.0,0.0,0.0,-0.186,0.461,8.07,0.0,0.0,0.0,0.0,0.0,0.0,0.0,0.0,0.0
1576083187170801316,493,0,,0.0,0.0,0.0,0.0,0.0,0.0,0.0,0.0,0.0,0.0,0.0,0.0,0.0,0.036,-0.003,0.03,0.0,0.0,0.0,0.0,0.0,0.0,0.0,0.0,0.0,0.769,1.64,12.47,0.0,0.0,0.0,0.0,0.0,0.0,0.0,0.0,0.0
1576083187296808206,494,0,,0.0,0.0,0.0,0.0,0.0,0.0,0.0,0.0,0.0,0.0,0.0,0.0,0.0,-0.084,0.002,-0.0,0.0,0.0,0.0,0.0,0.0,0.0,0.0,0.0,0.0,0.337,0.043,7.6,0.0,0.0,0.0,0.0,0.0,0.0,0.0,0.0,0.0
1576083187368955750,495,0,,0.0,0.0,0.0,0.0,0.0,0.0,0.0,0.0,0.0,0.0,0.0,0.0,0.0,-0.073,-0.003,-0.03,0.0,0.0,0.0,0.0,0.0,0.0,0.0,0.0,0.0,-0.377,0.314,8.52,0.0,0.0,0.0,0.0,0.0,0.0,0.0,0.0,0.0
1576083187430804082,496,0,,0.0,0.0,0.0,0.0,0.0,0.0,0.0,0.0,0.0,0.0,0.0,0.0,0.0,-0.07,-0.002,-0.12,0.0,0.0,0.0,0.0,0.0,0.0,0.0,0.0,0.0,0.422,-0.457,8.21,0.0,0.0,0.0,0.0,0.0,0.0,0.0,0.0,0.0
1576083187498262366,497,0,,0.0,0.0,0.0,0.0,0.0,0.0,0.0,0.0,0.0,0.0,0.0,0.0,0.0,-0.042,-0.008,-0.17,0.0,0.0,0.0,0.0,0.0,0.0,0.0,0.0,0.0,-0.302,1.111,7.16,0.0,0.0,0.0,0.0,0.0,0.0,0.0,0.0,0.0
1576083187573679535,498,0,,0.0,0.0,0.0,0.0,0.0,0.0,0.0,0.0,0.0,0.0,0.0,0.0,0.0,0.019,0.075,-0.13,0.0,0.0,0.0,0.0,0.0,0.0,0.0,0.0,0.0,-1.02,-0.505,12.25,0.0,0.0,0.0,0.0,0.0,0.0,0.0,0.0,0.0
1576083187632541740,499,0,,0.0,0.0,0.0,0.0,0.0,0.0,0.0,0.0,0.0,0.0,0.0,0.0,0.0,-0.032,0.018,0.01,0.0,0.0,0.0,0.0,0.0,0.0,0.0,0.0,0.0,-0.311,-2.758,15.31,0.0,0.0,0.0,0.0,0.0,0.0,0.0,0.0,0.0
1576083187702681108,500,0,,0.0,0.0,0.0,0.0,0.0,0.0,0.0,0.0,0.0,0.0,0.0,0.0,0.0,0.162,-0.085,0.02,0.0,0.0,0.0,0.0,0.0,0.0,0.0,0.0,0.0,-1.205,2.845,11.58,0.0,0.0,0.0,0.0,0.0,0.0,0.0,0.0,0.0
1576083187771387519,501,0,,0.0,0.0,0.0,0.0,0.0,0.0,0.0,0.0,0.0,0.0,0.0,0.0,0.0,0.181,0.077,0.18,0.0,0.0,0.0,0.0,0.0,0.0,0.0,0.0,0.0,0.579,1.264,9.67,0.0,0.0,0.0,0.0,0.0,0.0,0.0,0.0,0.0
1576083187871353610,502,0,,0.0,0.0,0.0,0.0,0.0,0.0,0.0,0.0,0.0,0.0,0.0,0.0,0.0,-0.12,-0.025,0.07,0.0,0.0,0.0,0.0,0.0,0.0,0.0,0.0,0.0,-0.387,-0.606,11.04,0.0,0.0,0.0,0.0,0.0,0.0,0.0,0.0,0.0
1576083187902265737,503,0,,0.0,0.0,0.0,0.0,0.0,0.0,0.0,0.0,0.0,0.0,0.0,0.0,0.0,-0.095,-0.033,0.01,0.0,0.0,0.0,0.0,0.0,0.0,0.0,0.0,0.0,-0.337,1.306,6.35,0.0,0.0,0.0,0.0,0.0,0.0,0.0,0.0,0.0
1576083187971335991,504,0,,0.0,0.0,0.0,0.0,0.0,0.0,0.0,0.0,0.0,0.0,0.0,0.0,0.0,-0.006,-0.028,-0.02,0.0,0.0,0.0,0.0,0.0,0.0,0.0,0.0,0.0,-0.027,-0.208,10.66,0.0,0.0,0.0,0.0,0.0,0.0,0.0,0.0,0.0
1576083188037125361,505,0,,0.0,0.0,0.0,0.0,0.0,0.0,0.0,0.0,0.0,0.0,0.0,0.0,0.0,-0.008,-0.01,-0.07,0.0,0.0,0.0,0.0,0.0,0.0,0.0,0.0,0.0,-0.395,0.664,8.26,0.0,0.0,0.0,0.0,0.0,0.0,0.0,0.0,0.0
1576083188104119382,506,0,,0.0,0.0,0.0,0.0,0.0,0.0,0.0,0.0,0.0,0.0,0.0,0.0,0.0,-0.015,-0.018,-0.25,0.0,0.0,0.0,0.0,0.0,0.0,0.0,0.0,0.0,0.328,0.408,9.69,0.0,0.0,0.0,0.0,0.0,0.0,0.0,0.0,0.0
1576083188169708534,507,0,,0.0,0.0,0.0,0.0,0.0,0.0,0.0,0.0,0.0,0.0,0.0,0.0,0.0,0.023,-0.017,-0.22,0.0,0.0,0.0,0.0,0.0,0.0,0.0,0.0,0.0,0.613,-0.615,12.37,0.0,0.0,0.0,0.0,0.0,0.0,0.0,0.0,0.0
1576083188306781803,508,0,,0.0,0.0,0.0,0.0,0.0,0.0,0.0,0.0,0.0,0.0,0.0,0.0,0.0,0.015,0.001,-0.04,0.0,0.0,0.0,0.0,0.0,0.0,0.0,0.0,0.0,0.235,0.051,8.57,0.0,0.0,0.0,0.0,0.0,0.0,0.0,0.0,0.0
1576083188372947206,509,0,,0.0,0.0,0.0,0.0,0.0,0.0,0.0,0.0,0.0,0.0,0.0,0.0,0.0,-0.019,0.009,0.03,0.0,0.0,0.0,0.0,0.0,0.0,0.0,0.0,0.0,0.202,0.418,7.63,0.0,0.0,0.0,0.0,0.0,0.0,0.0,0.0,0.0
1576083188461283219,510,0,,0.0,0.0,0.0,0.0,0.0,0.0,0.0,0.0,0.0,0.0,0.0,0.0,0.0,-0.017,0.008,0.09,0.0,0.0,0.0,0.0,0.0,0.0,0.0,0.0,0.0,-0.428,0.355,10.15,0.0,0.0,0.0,0.0,0.0,0.0,0.0,0.0,0.0
1576083188568296321,511,0,,0.0,0.0,0.0,0.0,0.0,0.0,0.0,0.0,0.0,0.0,0.0,0.0,0.0,0.031,0.005,0.12,0.0,0.0,0.0,0.0,0.0,0.0,0.0,0.0,0.0,-1.274,-0.03,11.04,0.0,0.0,0.0,0.0,0.0,0.0,0.0,0.0,0.0
1576083188630986051,512,0,,0.0,0.0,0.0,0.0,0.0,0.0,0.0,0.0,0.0,0.0,0.0,0.0,0.0,0.026,0.006,0.11,0.0,0.0,0.0,0.0,0.0,0.0,0.0,0.0,0.0,-0.814,1.128,8.57,0.0,0.0,0.0,0.0,0.0,0.0,0.0,0.0,0.0
1576083188703226638,513,0,,0.0,0.0,0.0,0.0,0.0,0.0,0.0,0.0,0.0,0.0,0.0,0.0,0.0,0.04,-0.019,0.12,0.0,0.0,0.0,0.0,0.0,0.0,0.0,0.0,0.0,-0.315,0.381,10.89,0.0,0.0,0.0,0.0,0.0,0.0,0.0,0.0,0.0
1576083188765563211,514,0,,0.0,0.0,0.0,0.0,0.0,0.0,0.0,0.0,0.0,0.0,0.0,0.0,0.0,-0.047,0.005,0.12,0.0,0.0,0.0,0.0,0.0,0.0,0.0,0.0,0.0,-0.231,0.389,14.33,0.0,0.0,0.0,0.0,0.0,0.0,0.0,0.0,0.0
1576083188829551178,515,0,,0.0,0.0,0.0,0.0,0.0,0.0,0.0,0.0,0.0,0.0,0.0,0.0,0.0,0.038,0.011,0.15,0.0,0.0,0.0,0.0,0.0,0.0,0.0,0.0,0.0,0.227,1.171,6.26,0.0,0.0,0.0,0.0,0.0,0.0,0.0,0.0,0.0
1576083188897744479,516,0,,0.0,0.0,0.0,0.0,0.0,0.0,0.0,0.0,0.0,0.0,0.0,0.0,0.0,-0.074,-0.0,0.05,0.0,0.0,0.0,0.0,0.0,0.0,0.0,0.0,0.0,-0.648,-0.606,10.8,0.0,0.0,0.0,0.0,0.0,0.0,0.0,0.0,0.0
1576083188966786201,517,0,,0.0,0.0,0.0,0.0,0.0,0.0,0.0,0.0,0.0,0.0,0.0,0.0,0.0,0.009,0.031,0.0,0.0,0.0,0.0,0.0,0.0,0.0,0.0,0.0,0.0,-0.353,0.342,13.35,0.0,0.0,0.0,0.0,0.0,0.0,0.0,0.0,0.0
1576083189031976861,518,0,,0.0,0.0,0.0,0.0,0.0,0.0,0.0,0.0,0.0,0.0,0.0,0.0,0.0,-0.154,0.051,-0.06,0.0,0.0,0.0,0.0,0.0,0.0,0.0,0.0,0.0,-0.398,0.182,7.14,0.0,0.0,0.0,0.0,0.0,0.0,0.0,0.0,0.0
1576083189100766685,519,0,,0.0,0.0,0.0,0.0,0.0,0.0,0.0,0.0,0.0,0.0,0.0,0.0,0.0,0.137,-0.038,-0.19,0.0,0.0,0.0,0.0,0.0,0.0,0.0,0.0,0.0,0.711,1.044,5.21,0.0,0.0,0.0,0.0,0.0,0.0,0.0,0.0,0.0
1576083189167062929,520,0,,0.0,0.0,0.0,0.0,0.0,0.0,0.0,0.0,0.0,0.0,0.0,0.0,0.0,0.014,-0.0,-0.12,0.0,0.0,0.0,0.0,0.0,0.0,0.0,0.0,0.0,0.807,-0.932,9.21,0.0,0.0,0.0,0.0,0.0,0.0,0.0,0.0,0.0
1576083189234339242,521,0,,0.0,0.0,0.0,0.0,0.0,0.0,0.0,0.0,0.0,0.0,0.0,0.0,0.0,-0.107,-0.003,-0.2,0.0,0.0,0.0,0.0,0.0,0.0,0.0,0.0,0.0,0.391,1.159,12.03,0.0,0.0,0.0,0.0,0.0,0.0,0.0,0.0,0.0
1576083189303480616,522,0,,0.0,0.0,0.0,0.0,0.0,0.0,0.0,0.0,0.0,0.0,0.0,0.0,0.0,0.024,0.002,-0.04,0.0,0.0,0.0,0.0,0.0,0.0,0.0,0.0,0.0,-0.074,-0.082,8.84,0.0,0.0,0.0,0.0,0.0,0.0,0.0,0.0,0.0
1576083189370357006,523,0,,0.0,0.0,0.0,0.0,0.0,0.0,0.0,0.0,0.0,0.0,0.0,0.0,0.0,0.063,-0.01,-0.05,0.0,0.0,0.0,0.0,0.0,0.0,0.0,0.0,0.0,-0.384,0.7,10.87,0.0,0.0,0.0,0.0,0.0,0.0,0.0,0.0,0.0
1576083189436688466,524,0,,0.0,0.0,0.0,0.0,0.0,0.0,0.0,0.0,0.0,0.0,0.0,0.0,0.0,0.014,-0.001,-0.08,0.0,0.0,0.0,0.0,0.0,0.0,0.0,0.0,0.0,0.348,0.498,8.87,0.0,0.0,0.0,0.0,0.0,0.0,0.0,0.0,0.0
1576083189507950053,525,0,,0.0,0.0,0.0,0.0,0.0,0.0,0.0,0.0,0.0,0.0,0.0,0.0,0.0,0.003,-0.006,-0.04,0.0,0.0,0.0,0.0,0.0,0.0,0.0,0.0,0.0,-0.153,0.472,12.17,0.0,0.0,0.0,0.0,0.0,0.0,0.0,0.0,0.0
1576083189674405453,526,0,,0.0,0.0,0.0,0.0,0.0,0.0,0.0,0.0,0.0,0.0,0.0,0.0,0.0,-0.022,0.011,0.04,0.0,0.0,0.0,0.0,0.0,0.0,0.0,0.0,0.0,0.37,0.899,9.5,0.0,0.0,0.0,0.0,0.0,0.0,0.0,0.0,0.0
1576083189763353885,527,0,,0.0,0.0,0.0,0.0,0.0,0.0,0.0,0.0,0.0,0.0,0.0,0.0,0.0,-0.016,-0.013,0.02,0.0,0.0,0.0,0.0,0.0,0.0,0.0,0.0,0.0,0.656,0.259,7.72,0.0,0.0,0.0,0.0,0.0,0.0,0.0,0.0,0.0
1576083189830648684,528,0,,0.0,0.0,0.0,0.0,0.0,0.0,0.0,0.0,0.0,0.0,0.0,0.0,0.0,-0.025,0.002,0.01,0.0,0.0,0.0,0.0,0.0,0.0,0.0,0.0,0.0,-0.043,-0.443,9.8,0.0,0.0,0.0,0.0,0.0,0.0,0.0,0.0,0.0
1576083189898894810,529,0,,0.0,0.0,0.0,0.0,0.0,0.0,0.0,0.0,0.0,0.0,0.0,0.0,0.0,0.024,0.007,0.01,0.0,0.0,0.0,0.0,0.0,0.0,0.0,0.0,0.0,-0.392,0.193,10.42,0.0,0.0,0.0,0.0,0.0,0.0,0.0,0.0,0.0
1576083189964418906,530,0,,0.0,0.0,0.0,0.0,0.0,0.0,0.0,0.0,0.0,0.0,0.0,0.0,0.0,-0.034,-0.011,0.0,0.0,0.0,0.0,0.0,0.0,0.0,0.0,0.0,0.0,-0.863,0.204,8.15,0.0,0.0,0.0,0.0,0.0,0.0,0.0,0.0,0.0
1576083190040930374,531,0,,0.0,0.0,0.0,0.0,0.0,0.0,0.0,0.0,0.0,0.0,0.0,0.0,0.0,0.005,0.005,-0.0,0.0,0.0,0.0,0.0,0.0,0.0,0.0,0.0,0.0,-0.393,0.581,10.84,0.0,0.0,0.0,0.0,0.0,0.0,0.0,0.0,0.0
1576083190098107354,532,0,,0.0,0.0,0.0,0.0,0.0,0.0,0.0,0.0,0.0,0.0,0.0,0.0,0.0,-0.046,-0.002,0.01,0.0,0.0,0.0,0.0,0.0,0.0,0.0,0.0,0.0,0.029,-0.004,11.09,0.0,0.0,0.0,0.0,0.0,0.0,0.0,0.0,0.0
1576083190167053415,533,0,,0.0,0.0,0.0,0.0,0.0,0.0,0.0,0.0,0.0,0.0,0.0,0.0,0.0,-0.062,0.032,0.01,0.0,0.0,0.0,0.0,0.0,0.0,0.0,0.0,0.0,-0.918,1.278,8.05,0.0,0.0,0.0,0.0,0.0,0.0,0.0,0.0,0.0
1576083190230630353,534,0,,0.0,0.0,0.0,0.0,0.0,0.0,0.0,0.0,0.0,0.0,0.0,0.0,0.0,0.041,-0.029,0.04,0.0,0.0,0.0,0.0,0.0,0.0,0.0,0.0,0.0,-0.185,-0.052,8.64,0.0,0.0,0.0,0.0,0.0,0.0,0.0,0.0,0.0
1576083190299955491,535,0,,0.0,0.0,0.0,0.0,0.0,0.0,0.0,0.0,0.0,0.0,0.0,0.0,0.0,-0.028,0.019,-0.0,0.0,0.0,0.0,0.0,0.0,0.0,0.0,0.0,0.0,-0.521,-0.318,7.22,0.0,0.0,0.0,0.0,0.0,0.0,0.0,0.0,0.0
1576083190432805995,536,0,,0.0,0.0,0.0,0.0,0.0,0.0,0.0,0.0,0.0,0.0,0.0,0.0,0.0,-0.003,-0.009,0.0,0.0,0.0,0.0,0.0,0.0,0.0,0.0,0.0,0.0,-0.005,0.456,3.74,0.0,0.0,0.0,0.0,0.0,0.0,0.0,0.0,0.0
1576083190433577059,537,0,,0.0,0.0,0.0,0.0,0.0,0.0,0.0,0.0,0.0,0.0,0.0,0.0,0.0,-0.054,-0.049,-0.14,0.0,0.0,0.0,0.0,0.0,0.0,0.0,0.0,0.0,0.36,-0.797,4.97,0.0,0.0,0.0,0.0,0.0,0.0,0.0,0.0,0.0
1576083190504923940,538,0,,0.0,0.0,0.0,0.0,0.0,0.0,0.0,0.0,0.0,0.0,0.0,0.0,0.0,0.188,0.038,-0.07,0.0,0.0,0.0,0.0,0.0,0.0,0.0,0.0,0.0,-0.587,2.142,8.9,0.0,0.0,0.0,0.0,0.0,0.0,0.0,0.0,0.0
1576083190574922006,539,0,,0.0,0.0,0.0,0.0,0.0,0.0,0.0,0.0,0.0,0.0,0.0,0.0,0.0,-0.061,-0.056,-0.2,0.0,0.0,0.0,0.0,0.0,0.0,0.0,0.0,0.0,0.38,-0.753,11.5,0.0,0.0,0.0,0.0,0.0,0.0,0.0,0.0,0.0
1576083190666705098,540,0,,0.0,0.0,0.0,0.0,0.0,0.0,0.0,0.0,0.0,0.0,0.0,0.0,0.0,0.006,-0.018,-0.09,0.0,0.0,0.0,0.0,0.0,0.0,0.0,0.0,0.0,-0.495,0.794,11.59,0.0,0.0,0.0,0.0,0.0,0.0,0.0,0.0,0.0
1576083190703505684,541,0,,0.0,0.0,0.0,0.0,0.0,0.0,0.0,0.0,0.0,0.0,0.0,0.0,0.0,-0.009,0.02,-0.05,0.0,0.0,0.0,0.0,0.0,0.0,0.0,0.0,0.0,-0.24,-0.795,9.73,0.0,0.0,0.0,0.0,0.0,0.0,0.0,0.0,0.0
1576083190858656973,542,0,,0.0,0.0,0.0,0.0,0.0,0.0,0.0,0.0,0.0,0.0,0.0,0.0,0.0,0.064,0.013,-0.04,0.0,0.0,0.0,0.0,0.0,0.0,0.0,0.0,0.0,-0.262,-0.094,11.5,0.0,0.0,0.0,0.0,0.0,0.0,0.0,0.0,0.0
1576083190910292331,543,0,,0.0,0.0,0.0,0.0,0.0,0.0,0.0,0.0,0.0,0.0,0.0,0.0,0.0,0.009,0.001,-0.02,0.0,0.0,0.0,0.0,0.0,0.0,0.0,0.0,0.0,-0.152,0.563,10.38,0.0,0.0,0.0,0.0,0.0,0.0,0.0,0.0,0.0
1576083191034286895,544,0,,0.0,0.0,0.0,0.0,0.0,0.0,0.0,0.0,0.0,0.0,0.0,0.0,0.0,-0.088,0.037,0.0,0.0,0.0,0.0,0.0,0.0,0.0,0.0,0.0,0.0,-0.917,0.526,12.42,0.0,0.0,0.0,0.0,0.0,0.0,0.0,0.0,0.0
1576083191098683372,545,0,,0.0,0.0,0.0,0.0,0.0,0.0,0.0,0.0,0.0,0.0,0.0,0.0,0.0,-0.019,-0.007,-0.03,0.0,0.0,0.0,0.0,0.0,0.0,0.0,0.0,0.0,-0.297,-0.294,8.75,0.0,0.0,0.0,0.0,0.0,0.0,0.0,0.0,0.0
1576083191182779359,546,0,,0.0,0.0,0.0,0.0,0.0,0.0,0.0,0.0,0.0,0.0,0.0,0.0,0.0,-0.014,-0.002,-0.06,0.0,0.0,0.0,0.0,0.0,0.0,0.0,0.0,0.0,-0.315,-0.089,4.7,0.0,0.0,0.0,0.0,0.0,0.0,0.0,0.0,0.0
1576083191231474843,547,0,,0.0,0.0,0.0,0.0,0.0,0.0,0.0,0.0,0.0,0.0,0.0,0.0,0.0,0.016,0.001,-0.13,0.0,0.0,0.0,0.0,0.0,0.0,0.0,0.0,0.0,0.12,0.302,12.47,0.0,0.0,0.0,0.0,0.0,0.0,0.0,0.0,0.0
1576083191297855857,548,0,,0.0,0.0,0.0,0.0,0.0,0.0,0.0,0.0,0.0,0.0,0.0,0.0,0.0,0.095,-0.019,-0.19,0.0,0.0,0.0,0.0,0.0,0.0,0.0,0.0,0.0,-1.173,0.532,13.26,0.0,0.0,0.0,0.0,0.0,0.0,0.0,0.0,0.0
1576083191377379222,549,0,,0.0,0.0,0.0,0.0,0.0,0.0,0.0,0.0,0.0,0.0,0.0,0.0,0.0,0.001,-0.068,-0.22,0.0,0.0,0.0,0.0,0.0,0.0,0.0,0.0,0.0,-0.077,0.346,9.75,0.0,0.0,0.0,0.0,0.0,0.0,0.0,0.0,0.0
1576083191434642152,550,0,,0.0,0.0,0.0,0.0,0.0,0.0,0.0,0.0,0.0,0.0,0.0,0.0,0.0,-0.025,-0.032,-0.23,0.0,0.0,0.0,0.0,0.0,0.0,0.0,0.0,0.0,-0.197,0.144,10.37,0.0,0.0,0.0,0.0,0.0,0.0,0.0,0.0,0.0
1576083191501344970,551,0,,0.0,0.0,0.0,0.0,0.0,0.0,0.0,0.0,0.0,0.0,0.0,0.0,0.0,-0.043,-0.068,-0.21,0.0,0.0,0.0,0.0,0.0,0.0,0.0,0.0,0.0,0.399,0.031,7.06,0.0,0.0,0.0,0.0,0.0,0.0,0.0,0.0,0.0
1576083191578742946,552,0,,0.0,0.0,0.0,0.0,0.0,0.0,0.0,0.0,0.0,0.0,0.0,0.0,0.0,0.066,-0.196,-0.18,0.0,0.0,0.0,0.0,0.0,0.0,0.0,0.0,0.0,0.415,0.882,8.0,0.0,0.0,0.0,0.0,0.0,0.0,0.0,0.0,0.0
1576083191635709544,553,0,,0.0,0.0,0.0,0.0,0.0,0.0,0.0,0.0,0.0,0.0,0.0,0.0,0.0,-0.096,0.236,-0.16,0.0,0.0,0.0,0.0,0.0,0.0,0.0,0.0,0.0,-0.229,0.681,8.4,0.0,0.0,0.0,0.0,0.0,0.0,0.0,0.0,0.0
1576083191715253579,554,0,,0.0,0.0,0.0,0.0,0.0,0.0,0.0,0.0,0.0,0.0,0.0,0.0,0.0,0.004,-0.075,-0.02,0.0,0.0,0.0,0.0,0.0,0.0,0.0,0.0,0.0,-0.079,0.519,-0.33,0.0,0.0,0.0,0.0,0.0,0.0,0.0,0.0,0.0
1576083191777064654,555,0,,0.0,0.0,0.0,0.0,0.0,0.0,0.0,0.0,0.0,0.0,0.0,0.0,0.0,0.166,-0.009,-0.33,0.0,0.0,0.0,0.0,0.0,0.0,0.0,0.0,0.0,2.451,-3.022,-0.62,0.0,0.0,0.0,0.0,0.0,0.0,0.0,0.0,0.0
1576083191837874341,556,0,,0.0,0.0,0.0,0.0,0.0,0.0,0.0,0.0,0.0,0.0,0.0,0.0,0.0,-0.123,0.025,0.12,0.0,0.0,0.0,0.0,0.0,0.0,0.0,0.0,0.0,0.163,0.688,9.92,0.0,0.0,0.0,0.0,0.0,0.0,0.0,0.0,0.0
1576083191903792128,557,0,,0.0,0.0,0.0,0.0,0.0,0.0,0.0,0.0,0.0,0.0,0.0,0.0,0.0,0.058,-0.05,0.18,0.0,0.0,0.0,0.0,0.0,0.0,0.0,0.0,0.0,-1.012,-0.754,6.37,0.0,0.0,0.0,0.0,0.0,0.0,0.0,0.0,0.0
1576083191974606823,558,0,,0.0,0.0,0.0,0.0,0.0,0.0,0.0,0.0,0.0,0.0,0.0,0.0,0.0,0.132,0.021,0.14,0.0,0.0,0.0,0.0,0.0,0.0,0.0,0.0,0.0,-0.452,1.676,9.14,0.0,0.0,0.0,0.0,0.0,0.0,0.0,0.0,0.0
1576083192106623817,559,0,,0.0,0.0,0.0,0.0,0.0,0.0,0.0,0.0,0.0,0.0,0.0,0.0,0.0,0.065,0.001,0.16,0.0,0.0,0.0,0.0,0.0,0.0,0.0,0.0,0.0,0.085,0.505,10.73,0.0,0.0,0.0,0.0,0.0,0.0,0.0,0.0,0.0
1576083192231287644,560,0,,0.0,0.0,0.0,0.0,0.0,0.0,0.0,0.0,0.0,0.0,0.0,0.0,0.0,0.058,-0.008,0.13,0.0,0.0,0.0,0.0,0.0,0.0,0.0,0.0,0.0,-0.844,1.201,11.44,0.0,0.0,0.0,0.0,0.0,0.0,0.0,0.0,0.0
1576083192297402227,561,0,,0.0,0.0,0.0,0.0,0.0,0.0,0.0,0.0,0.0,0.0,0.0,0.0,0.0,0.033,-0.008,0.08,0.0,0.0,0.0,0.0,0.0,0.0,0.0,0.0,0.0,-0.446,1.05,8.52,0.0,0.0,0.0,0.0,0.0,0.0,0.0,0.0,0.0
1576083192480133017,562,0,,0.0,0.0,0.0,0.0,0.0,0.0,0.0,0.0,0.0,0.0,0.0,0.0,0.0,-0.017,0.001,-0.0,0.0,0.0,0.0,0.0,0.0,0.0,0.0,0.0,0.0,0.472,0.417,8.03,0.0,0.0,0.0,0.0,0.0,0.0,0.0,0.0,0.0
1576083192480897691,563,0,,0.0,0.0,0.0,0.0,0.0,0.0,0.0,0.0,0.0,0.0,0.0,0.0,0.0,-0.06,0.006,-0.08,0.0,0.0,0.0,0.0,0.0,0.0,0.0,0.0,0.0,-0.775,-0.017,9.54,0.0,0.0,0.0,0.0,0.0,0.0,0.0,0.0,0.0
1576083192502910860,564,0,,0.0,0.0,0.0,0.0,0.0,0.0,0.0,0.0,0.0,0.0,0.0,0.0,0.0,-0.03,-0.003,-0.12,0.0,0.0,0.0,0.0,0.0,0.0,0.0,0.0,0.0,0.263,-0.313,10.26,0.0,0.0,0.0,0.0,0.0,0.0,0.0,0.0,0.0
1576083192575016061,565,0,,0.0,0.0,0.0,0.0,0.0,0.0,0.0,0.0,0.0,0.0,0.0,0.0,0.0,-0.006,-0.025,-0.17,0.0,0.0,0.0,0.0,0.0,0.0,0.0,0.0,0.0,1.575,-0.056,13.2,0.0,0.0,0.0,0.0,0.0,0.0,0.0,0.0,0.0
1576083192632607244,566,0,,0.0,0.0,0.0,0.0,0.0,0.0,0.0,0.0,0.0,0.0,0.0,0.0,0.0,0.007,0.006,-0.2,0.0,0.0,0.0,0.0,0.0,0.0,0.0,0.0,0.0,-0.103,-0.042,9.67,0.0,0.0,0.0,0.0,0.0,0.0,0.0,0.0,0.0
1576083192700418912,567,0,,0.0,0.0,0.0,0.0,0.0,0.0,0.0,0.0,0.0,0.0,0.0,0.0,0.0,0.014,0.004,-0.19,0.0,0.0,0.0,0.0,0.0,0.0,0.0,0.0,0.0,-0.677,0.433,9.99,0.0,0.0,0.0,0.0,0.0,0.0,0.0,0.0,0.0
1576083192773320249,568,0,,0.0,0.0,0.0,0.0,0.0,0.0,0.0,0.0,0.0,0.0,0.0,0.0,0.0,-0.004,-0.006,-0.13,0.0,0.0,0.0,0.0,0.0,0.0,0.0,0.0,0.0,-0.488,0.169,8.28,0.0,0.0,0.0,0.0,0.0,0.0,0.0,0.0,0.0
1576083192833544691,569,0,,0.0,0.0,0.0,0.0,0.0,0.0,0.0,0.0,0.0,0.0,0.0,0.0,0.0,0.028,0.012,-0.07,0.0,0.0,0.0,0.0,0.0,0.0,0.0,0.0,0.0,-0.502,0.09,9.41,0.0,0.0,0.0,0.0,0.0,0.0,0.0,0.0,0.0
1576083192902852544,570,0,,0.0,0.0,0.0,0.0,0.0,0.0,0.0,0.0,0.0,0.0,0.0,0.0,0.0,0.046,0.038,0.02,0.0,0.0,0.0,0.0,0.0,0.0,0.0,0.0,0.0,-1.09,0.504,10.95,0.0,0.0,0.0,0.0,0.0,0.0,0.0,0.0,0.0
1576083192994824824,571,0,,0.0,0.0,0.0,0.0,0.0,0.0,0.0,0.0,0.0,0.0,0.0,0.0,0.0,-0.052,0.013,0.1,0.0,0.0,0.0,0.0,0.0,0.0,0.0,0.0,0.0,0.504,1.618,10.86,0.0,0.0,0.0,0.0,0.0,0.0,0.0,0.0,0.0
1576083193034622191,572,0,,0.0,0.0,0.0,0.0,0.0,0.0,0.0,0.0,0.0,0.0,0.0,0.0,0.0,-0.049,-0.073,0.09,0.0,0.0,0.0,0.0,0.0,0.0,0.0,0.0,0.0,-0.447,-0.179,9.78,0.0,0.0,0.0,0.0,0.0,0.0,0.0,0.0,0.0
1576083193175070911,573,0,,0.0,0.0,0.0,0.0,0.0,0.0,0.0,0.0,0.0,0.0,0.0,0.0,0.0,-0.018,-0.004,0.05,0.0,0.0,0.0,0.0,0.0,0.0,0.0,0.0,0.0,-0.834,-0.456,10.16,0.0,0.0,0.0,0.0,0.0,0.0,0.0,0.0,0.0
1576083193307323383,574,0,,0.0,0.0,0.0,0.0,0.0,0.0,0.0,0.0,0.0,0.0,0.0,0.0,0.0,0.035,0.003,-0.02,0.0,0.0,0.0,0.0,0.0,0.0,0.0,0.0,0.0,0.29,-0.875,9.15,0.0,0.0,0.0,0.0,0.0,0.0,0.0,0.0,0.0
1576083193375022648,575,0,,0.0,0.0,0.0,0.0,0.0,0.0,0.0,0.0,0.0,0.0,0.0,0.0,0.0,0.004,-0.006,-0.07,0.0,0.0,0.0,0.0,0.0,0.0,0.0,0.0,0.0,-0.783,0.976,10.48,0.0,0.0,0.0,0.0,0.0,0.0,0.0,0.0,0.0
1576083193497176389,576,0,,0.0,0.0,0.0,0.0,0.0,0.0,0.0,0.0,0.0,0.0,0.0,0.0,0.0,0.01,0.031,-0.09,0.0,0.0,0.0,0.0,0.0,0.0,0.0,0.0,0.0,-0.031,-0.226,8.42,0.0,0.0,0.0,0.0,0.0,0.0,0.0,0.0,0.0
1576083193573908104,577,0,,0.0,0.0,0.0,0.0,0.0,0.0,0.0,0.0,0.0,0.0,0.0,0.0,0.0,0.001,-0.025,-0.07,0.0,0.0,0.0,0.0,0.0,0.0,0.0,0.0,0.0,-0.341,0.056,10.76,0.0,0.0,0.0,0.0,0.0,0.0,0.0,0.0,0.0
1576083193634586843,578,0,,0.0,0.0,0.0,0.0,0.0,0.0,0.0,0.0,0.0,0.0,0.0,0.0,0.0,-0.001,-0.004,-0.0,0.0,0.0,0.0,0.0,0.0,0.0,0.0,0.0,0.0,-0.884,0.511,9.36,0.0,0.0,0.0,0.0,0.0,0.0,0.0,0.0,0.0
1576083193698986844,579,0,,0.0,0.0,0.0,0.0,0.0,0.0,0.0,0.0,0.0,0.0,0.0,0.0,0.0,0.042,0.014,-0.01,0.0,0.0,0.0,0.0,0.0,0.0,0.0,0.0,0.0,-0.575,0.503,10.73,0.0,0.0,0.0,0.0,0.0,0.0,0.0,0.0,0.0
1576083193771170243,580,0,,0.0,0.0,0.0,0.0,0.0,0.0,0.0,0.0,0.0,0.0,0.0,0.0,0.0,0.031,0.013,-0.02,0.0,0.0,0.0,0.0,0.0,0.0,0.0,0.0,0.0,0.116,0.068,8.92,0.0,0.0,0.0,0.0,0.0,0.0,0.0,0.0,0.0
1576083193832118447,581,0,,0.0,0.0,0.0,0.0,0.0,0.0,0.0,0.0,0.0,0.0,0.0,0.0,0.0,0.026,0.005,-0.04,0.0,0.0,0.0,0.0,0.0,0.0,0.0,0.0,0.0,-0.29,1.067,8.14,0.0,0.0,0.0,0.0,0.0,0.0,0.0,0.0,0.0
1576083193917290017,582,0,,0.0,0.0,0.0,0.0,0.0,0.0,0.0,0.0,0.0,0.0,0.0,0.0,0.0,0.0,0.001,-0.02,0.0,0.0,0.0,0.0,0.0,0.0,0.0,0.0,0.0,-0.113,-0.334,10.5,0.0,0.0,0.0,0.0,0.0,0.0,0.0,0.0,0.0
1576083194008225844,583,0,,0.0,0.0,0.0,0.0,0.0,0.0,0.0,0.0,0.0,0.0,0.0,0.0,0.0,-0.038,0.012,0.01,0.0,0.0,0.0,0.0,0.0,0.0,0.0,0.0,0.0,-0.283,0.584,10.14,0.0,0.0,0.0,0.0,0.0,0.0,0.0,0.0,0.0
1576083194034257783,584,0,,0.0,0.0,0.0,0.0,0.0,0.0,0.0,0.0,0.0,0.0,0.0,0.0,0.0,-0.008,-0.001,0.01,0.0,0.0,0.0,0.0,0.0,0.0,0.0,0.0,0.0,0.116,-0.489,8.93,0.0,0.0,0.0,0.0,0.0,0.0,0.0,0.0,0.0
1576083194112414958,585,0,,0.0,0.0,0.0,0.0,0.0,0.0,0.0,0.0,0.0,0.0,0.0,0.0,0.0,0.065,0.005,-0.0,0.0,0.0,0.0,0.0,0.0,0.0,0.0,0.0,0.0,-0.393,1.044,11.8,0.0,0.0,0.0,0.0,0.0,0.0,0.0,0.0,0.0
1576083194323363585,586,0,,0.0,0.0,0.0,0.0,0.0,0.0,0.0,0.0,0.0,0.0,0.0,0.0,0.0,0.095,0.004,-0.0,0.0,0.0,0.0,0.0,0.0,0.0,0.0,0.0,0.0,0.77,-0.407,10.73,0.0,0.0,0.0,0.0,0.0,0.0,0.0,0.0,0.0
1576083194324683030,587,0,,0.0,0.0,0.0,0.0,0.0,0.0,0.0,0.0,0.0,0.0,0.0,0.0,0.0,0.005,0.009,0.02,0.0,0.0,0.0,0.0,0.0,0.0,0.0,0.0,0.0,-0.24,0.71,10.84,0.0,0.0,0.0,0.0,0.0,0.0,0.0,0.0,0.0
1576083194324724398,588,0,,0.0,0.0,0.0,0.0,0.0,0.0,0.0,0.0,0.0,0.0,0.0,0.0,0.0,0.025,-0.007,0.0,0.0,0.0,0.0,0.0,0.0,0.0,0.0,0.0,0.0,-0.698,0.041,9.35,0.0,0.0,0.0,0.0,0.0,0.0,0.0,0.0,0.0
1576083194412098825,589,0,,0.0,0.0,0.0,0.0,0.0,0.0,0.0,0.0,0.0,0.0,0.0,0.0,0.0,-0.005,0.012,0.03,0.0,0.0,0.0,0.0,0.0,0.0,0.0,0.0,0.0,0.374,0.466,9.26,0.0,0.0,0.0,0.0,0.0,0.0,0.0,0.0,0.0
1576083194437601397,590,0,,0.0,0.0,0.0,0.0,0.0,0.0,0.0,0.0,0.0,0.0,0.0,0.0,0.0,0.028,0.008,0.04,0.0,0.0,0.0,0.0,0.0,0.0,0.0,0.0,0.0,-0.271,0.542,9.33,0.0,0.0,0.0,0.0,0.0,0.0,0.0,0.0,0.0
1576083194522606899,591,0,,0.0,0.0,0.0,0.0,0.0,0.0,0.0,0.0,0.0,0.0,0.0,0.0,0.0,-0.014,0.04,0.08,0.0,0.0,0.0,0.0,0.0,0.0,0.0,0.0,0.0,-0.079,0.733,10.01,0.0,0.0,0.0,0.0,0.0,0.0,0.0,0.0,0.0
1576083194628684632,592,0,,0.0,0.0,0.0,0.0,0.0,0.0,0.0,0.0,0.0,0.0,0.0,0.0,0.0,0.08,0.023,0.12,0.0,0.0,0.0,0.0,0.0,0.0,0.0,0.0,0.0,-0.351,1.304,9.49,0.0,0.0,0.0,0.0,0.0,0.0,0.0,0.0,0.0
1576083194835908515,593,0,,0.0,0.0,0.0,0.0,0.0,0.0,0.0,0.0,0.0,0.0,0.0,0.0,0.0,0.076,-0.033,0.14,0.0,0.0,0.0,0.0,0.0,0.0,0.0,0.0,0.0,-0.768,0.92,10.43,0.0,0.0,0.0,0.0,0.0,0.0,0.0,0.0,0.0
1576083194836947827,594,0,,0.0,0.0,0.0,0.0,0.0,0.0,0.0,0.0,0.0,0.0,0.0,0.0,0.0,-0.042,0.055,0.19,0.0,0.0,0.0,0.0,0.0,0.0,0.0,0.0,0.0,-0.75,0.061,13.3,0.0,0.0,0.0,0.0,0.0,0.0,0.0,0.0,0.0
1576083194836993737,595,0,,0.0,0.0,0.0,0.0,0.0,0.0,0.0,0.0,0.0,0.0,0.0,0.0,0.0,-0.144,-0.038,0.14,0.0,0.0,0.0,0.0,0.0,0.0,0.0,0.0,0.0,-1.201,-0.454,13.64,0.0,0.0,0.0,0.0,0.0,0.0,0.0,0.0,0.0
1576083194927905090,596,0,,0.0,0.0,0.0,0.0,0.0,0.0,0.0,0.0,0.0,0.0,0.0,0.0,0.0,-0.048,-0.004,0.08,0.0,0.0,0.0,0.0,0.0,0.0,0.0,0.0,0.0,0.202,0.546,5.54,0.0,0.0,0.0,0.0,0.0,0.0,0.0,0.0,0.0
1576083194975794666,597,0,,0.0,0.0,0.0,0.0,0.0,0.0,0.0,0.0,0.0,0.0,0.0,0.0,0.0,-0.029,0.014,-0.05,0.0,0.0,0.0,0.0,0.0,0.0,0.0,0.0,0.0,0.393,-0.611,6.77,0.0,0.0,0.0,0.0,0.0,0.0,0.0,0.0,0.0
1576083195034105716,598,0,,0.0,0.0,0.0,0.0,0.0,0.0,0.0,0.0,0.0,0.0,0.0,0.0,0.0,0.101,-0.012,-0.11,0.0,0.0,0.0,0.0,0.0,0.0,0.0,0.0,0.0,-1.197,-0.255,9.77,0.0,0.0,0.0,0.0,0.0,0.0,0.0,0.0,0.0
1576083195116550716,599,0,,0.0,0.0,0.0,0.0,0.0,0.0,0.0,0.0,0.0,0.0,0.0,0.0,0.0,0.164,0.008,-0.07,0.0,0.0,0.0,0.0,0.0,0.0,0.0,0.0,0.0,1.272,2.347,14.45,0.0,0.0,0.0,0.0,0.0,0.0,0.0,0.0,0.0
1576083195212951384,600,0,,0.0,0.0,0.0,0.0,0.0,0.0,0.0,0.0,0.0,0.0,0.0,0.0,0.0,-0.104,-0.031,-0.03,0.0,0.0,0.0,0.0,0.0,0.0,0.0,0.0,0.0,0.032,0.104,10.13,0.0,0.0,0.0,0.0,0.0,0.0,0.0,0.0,0.0
1576083195233482196,601,0,,0.0,0.0,0.0,0.0,0.0,0.0,0.0,0.0,0.0,0.0,0.0,0.0,0.0,0.008,0.062,0.05,0.0,0.0,0.0,0.0,0.0,0.0,0.0,0.0,0.0,-1.416,0.929,11.02,0.0,0.0,0.0,0.0,0.0,0.0,0.0,0.0,0.0
1576083195311217117,602,0,,0.0,0.0,0.0,0.0,0.0,0.0,0.0,0.0,0.0,0.0,0.0,0.0,0.0,0.02,-0.017,0.11,0.0,0.0,0.0,0.0,0.0,0.0,0.0,0.0,0.0,0.89,0.744,11.48,0.0,0.0,0.0,0.0,0.0,0.0,0.0,0.0,0.0
1576083195405676929,603,0,,0.0,0.0,0.0,0.0,0.0,0.0,0.0,0.0,0.0,0.0,0.0,0.0,0.0,-0.156,0.068,0.08,0.0,0.0,0.0,0.0,0.0,0.0,0.0,0.0,0.0,-1.511,-0.68,8.39,0.0,0.0,0.0,0.0,0.0,0.0,0.0,0.0,0.0
1576083195435643685,604,0,,0.0,0.0,0.0,0.0,0.0,0.0,0.0,0.0,0.0,0.0,0.0,0.0,0.0,0.004,0.04,0.11,0.0,0.0,0.0,0.0,0.0,0.0,0.0,0.0,0.0,-0.057,0.836,10.27,0.0,0.0,0.0,0.0,0.0,0.0,0.0,0.0,0.0
1576083195656808674,605,0,,0.0,0.0,0.0,0.0,0.0,0.0,0.0,0.0,0.0,0.0,0.0,0.0,0.0,-0.001,0.053,0.1,0.0,0.0,0.0,0.0,0.0,0.0,0.0,0.0,0.0,0.469,0.657,9.76,0.0,0.0,0.0,0.0,0.0,0.0,0.0,0.0,0.0
1576083195657889028,606,0,,0.0,0.0,0.0,0.0,0.0,0.0,0.0,0.0,0.0,0.0,0.0,0.0,0.0,-0.044,0.052,0.1,0.0,0.0,0.0,0.0,0.0,0.0,0.0,0.0,0.0,-1.139,0.352,9.19,0.0,0.0,0.0,0.0,0.0,0.0,0.0,0.0,0.0
1576083195657933652,607,0,,0.0,0.0,0.0,0.0,0.0,0.0,0.0,0.0,0.0,0.0,0.0,0.0,0.0,-0.022,0.002,0.09,0.0,0.0,0.0,0.0,0.0,0.0,0.0,0.0,0.0,-0.469,0.412,9.36,0.0,0.0,0.0,0.0,0.0,0.0,0.0,0.0,0.0
1576083195745841750,608,0,,0.0,0.0,0.0,0.0,0.0,0.0,0.0,0.0,0.0,0.0,0.0,0.0,0.0,-0.047,0.001,0.06,0.0,0.0,0.0,0.0,0.0,0.0,0.0,0.0,0.0,-0.636,0.452,8.01,0.0,0.0,0.0,0.0,0.0,0.0,0.0,0.0,0.0
1576083195771852852,609,0,,0.0,0.0,0.0,0.0,0.0,0.0,0.0,0.0,0.0,0.0,0.0,0.0,0.0,-0.065,0.016,0.02,0.0,0.0,0.0,0.0,0.0,0.0,0.0,0.0,0.0,-1.051,0.952,11.61,0.0,0.0,0.0,0.0,0.0,0.0,0.0,0.0,0.0
1576083195858112534,610,0,,0.0,0.0,0.0,0.0,0.0,0.0,0.0,0.0,0.0,0.0,0.0,0.0,0.0,0.0,0.006,-0.01,0.0,0.0,0.0,0.0,0.0,0.0,0.0,0.0,0.0,-0.876,0.027,8.13,0.0,0.0,0.0,0.0,0.0,0.0,0.0,0.0,0.0
1576083195975098143,611,0,,0.0,0.0,0.0,0.0,0.0,0.0,0.0,0.0,0.0,0.0,0.0,0.0,0.0,0.03,0.01,-0.03,0.0,0.0,0.0,0.0,0.0,0.0,0.0,0.0,0.0,-0.626,0.246,8.86,0.0,0.0,0.0,0.0,0.0,0.0,0.0,0.0,0.0
1576083196034713092,612,0,,0.0,0.0,0.0,0.0,0.0,0.0,0.0,0.0,0.0,0.0,0.0,0.0,0.0,-0.0,0.018,-0.02,0.0,0.0,0.0,0.0,0.0,0.0,0.0,0.0,0.0,-0.613,0.263,10.33,0.0,0.0,0.0,0.0,0.0,0.0,0.0,0.0,0.0
1576083196098505561,613,0,,0.0,0.0,0.0,0.0,0.0,0.0,0.0,0.0,0.0,0.0,0.0,0.0,0.0,-0.029,0.002,-0.04,0.0,0.0,0.0,0.0,0.0,0.0,0.0,0.0,0.0,-1.535,0.126,14.63,0.0,0.0,0.0,0.0,0.0,0.0,0.0,0.0,0.0
1576083196169260893,614,0,,0.0,0.0,0.0,0.0,0.0,0.0,0.0,0.0,0.0,0.0,0.0,0.0,0.0,-0.037,-0.006,-0.06,0.0,0.0,0.0,0.0,0.0,0.0,0.0,0.0,0.0,-0.604,0.564,6.31,0.0,0.0,0.0,0.0,0.0,0.0,0.0,0.0,0.0
1576083196231794297,615,0,,0.0,0.0,0.0,0.0,0.0,0.0,0.0,0.0,0.0,0.0,0.0,0.0,0.0,-0.107,0.019,-0.01,0.0,0.0,0.0,0.0,0.0,0.0,0.0,0.0,0.0,0.465,-0.178,1.48,0.0,0.0,0.0,0.0,0.0,0.0,0.0,0.0,0.0
1576083196303482256,616,0,,0.0,0.0,0.0,0.0,0.0,0.0,0.0,0.0,0.0,0.0,0.0,0.0,0.0,0.011,-0.023,-0.06,0.0,0.0,0.0,0.0,0.0,0.0,0.0,0.0,0.0,-0.493,0.792,10.32,0.0,0.0,0.0,0.0,0.0,0.0,0.0,0.0,0.0
1576083196392065076,617,0,,0.0,0.0,0.0,0.0,0.0,0.0,0.0,0.0,0.0,0.0,0.0,0.0,0.0,0.021,0.03,0.03,0.0,0.0,0.0,0.0,0.0,0.0,0.0,0.0,0.0,-0.928,0.18,9.85,0.0,0.0,0.0,0.0,0.0,0.0,0.0,0.0,0.0
1576083196431767335,618,0,,0.0,0.0,0.0,0.0,0.0,0.0,0.0,0.0,0.0,0.0,0.0,0.0,0.0,0.003,-0.003,0.15,0.0,0.0,0.0,0.0,0.0,0.0,0.0,0.0,0.0,-0.165,-0.129,9.74,0.0,0.0,0.0,0.0,0.0,0.0,0.0,0.0,0.0
1576083196501767142,619,0,,0.0,0.0,0.0,0.0,0.0,0.0,0.0,0.0,0.0,0.0,0.0,0.0,0.0,-0.082,-0.001,0.24,0.0,0.0,0.0,0.0,0.0,0.0,0.0,0.0,0.0,-1.214,0.258,7.76,0.0,0.0,0.0,0.0,0.0,0.0,0.0,0.0,0.0
1576083196574447220,620,0,,0.0,0.0,0.0,0.0,0.0,0.0,0.0,0.0,0.0,0.0,0.0,0.0,0.0,-0.105,-0.026,0.31,0.0,0.0,0.0,0.0,0.0,0.0,0.0,0.0,0.0,0.466,-1.765,11.76,0.0,0.0,0.0,0.0,0.0,0.0,0.0,0.0,0.0
1576083196634852924,621,0,,0.0,0.0,0.0,0.0,0.0,0.0,0.0,0.0,0.0,0.0,0.0,0.0,0.0,-0.007,-0.024,0.28,0.0,0.0,0.0,0.0,0.0,0.0,0.0,0.0,0.0,-1.203,1.726,9.95,0.0,0.0,0.0,0.0,0.0,0.0,0.0,0.0,0.0
1576083196703945435,622,0,,0.0,0.0,0.0,0.0,0.0,0.0,0.0,0.0,0.0,0.0,0.0,0.0,0.0,-0.195,-0.053,0.26,0.0,0.0,0.0,0.0,0.0,0.0,0.0,0.0,0.0,-1.939,0.389,11.18,0.0,0.0,0.0,0.0,0.0,0.0,0.0,0.0,0.0
1576083196770080302,623,0,,0.0,0.0,0.0,0.0,0.0,0.0,0.0,0.0,0.0,0.0,0.0,0.0,0.0,-0.096,-0.002,0.17,0.0,0.0,0.0,0.0,0.0,0.0,0.0,0.0,0.0,0.28,-1.971,7.94,0.0,0.0,0.0,0.0,0.0,0.0,0.0,0.0,0.0
1576083196837288345,624,0,,0.0,0.0,0.0,0.0,0.0,0.0,0.0,0.0,0.0,0.0,0.0,0.0,0.0,-0.378,-0.154,0.27,0.0,0.0,0.0,0.0,0.0,0.0,0.0,0.0,0.0,-1.222,1.05,9.54,0.0,0.0,0.0,0.0,0.0,0.0,0.0,0.0,0.0
1576083196968407071,625,0,,0.0,0.0,0.0,0.0,0.0,0.0,0.0,0.0,0.0,0.0,0.0,0.0,0.0,-0.245,-0.003,0.18,0.0,0.0,0.0,0.0,0.0,0.0,0.0,0.0,0.0,-1.27,-0.586,9.07,0.0,0.0,0.0,0.0,0.0,0.0,0.0,0.0,0.0
1576083197038978969,626,0,,0.0,0.0,0.0,0.0,0.0,0.0,0.0,0.0,0.0,0.0,0.0,0.0,0.0,-0.147,-0.066,0.33,0.0,0.0,0.0,0.0,0.0,0.0,0.0,0.0,0.0,-0.677,-0.198,10.4,0.0,0.0,0.0,0.0,0.0,0.0,0.0,0.0,0.0
1576083197171045576,627,0,,0.0,0.0,0.0,0.0,0.0,0.0,0.0,0.0,0.0,0.0,0.0,0.0,0.0,0.088,0.02,0.42,0.0,0.0,0.0,0.0,0.0,0.0,0.0,0.0,0.0,-0.208,-0.08,7.51,0.0,0.0,0.0,0.0,0.0,0.0,0.0,0.0,0.0
1576083197228188588,628,0,,0.0,0.0,0.0,0.0,0.0,0.0,0.0,0.0,0.0,0.0,0.0,0.0,0.0,0.034,0.003,0.58,0.0,0.0,0.0,0.0,0.0,0.0,0.0,0.0,0.0,-0.63,-0.313,8.15,0.0,0.0,0.0,0.0,0.0,0.0,0.0,0.0,0.0
1576083197325125849,629,0,,0.0,0.0,0.0,0.0,0.0,0.0,0.0,0.0,0.0,0.0,0.0,0.0,0.0,-0.007,0.006,0.67,0.0,0.0,0.0,0.0,0.0,0.0,0.0,0.0,0.0,-0.413,0.523,6.64,0.0,0.0,0.0,0.0,0.0,0.0,0.0,0.0,0.0
1576083197372456938,630,0,,0.0,0.0,0.0,0.0,0.0,0.0,0.0,0.0,0.0,0.0,0.0,0.0,0.0,0.034,0.022,0.72,0.0,0.0,0.0,0.0,0.0,0.0,0.0,0.0,0.0,-1.971,-0.071,9.68,0.0,0.0,0.0,0.0,0.0,0.0,0.0,0.0,0.0
1576083197431250315,631,0,,0.0,0.0,0.0,0.0,0.0,0.0,0.0,0.0,0.0,0.0,0.0,0.0,0.0,-0.017,-0.033,0.7,0.0,0.0,0.0,0.0,0.0,0.0,0.0,0.0,0.0,-1.551,-0.098,9.95,0.0,0.0,0.0,0.0,0.0,0.0,0.0,0.0,0.0
1576083197499061771,632,0,,0.0,0.0,0.0,0.0,0.0,0.0,0.0,0.0,0.0,0.0,0.0,0.0,0.0,-0.036,-0.075,0.64,0.0,0.0,0.0,0.0,0.0,0.0,0.0,0.0,0.0,-0.514,-0.972,12.94,0.0,0.0,0.0,0.0,0.0,0.0,0.0,0.0,0.0
1576083197568341054,633,0,,0.0,0.0,0.0,0.0,0.0,0.0,0.0,0.0,0.0,0.0,0.0,0.0,0.0,0.017,-0.011,0.6,0.0,0.0,0.0,0.0,0.0,0.0,0.0,0.0,0.0,-0.839,-0.659,4.82,0.0,0.0,0.0,0.0,0.0,0.0,0.0,0.0,0.0
1576083197632288154,634,0,,0.0,0.0,0.0,0.0,0.0,0.0,0.0,0.0,0.0,0.0,0.0,0.0,0.0,0.023,-0.013,0.54,0.0,0.0,0.0,0.0,0.0,0.0,0.0,0.0,0.0,-1.114,0.782,11.74,0.0,0.0,0.0,0.0,0.0,0.0,0.0,0.0,0.0
1576083197702305230,635,0,,0.0,0.0,0.0,0.0,0.0,0.0,0.0,0.0,0.0,0.0,0.0,0.0,0.0,0.016,-0.001,1.39,0.0,0.0,0.0,0.0,0.0,0.0,0.0,0.0,0.0,0.783,-0.389,10.08,0.0,0.0,0.0,0.0,0.0,0.0,0.0,0.0,0.0
1576083197767957005,636,0,,0.0,0.0,0.0,0.0,0.0,0.0,0.0,0.0,0.0,0.0,0.0,0.0,0.0,-0.018,-0.028,0.91,0.0,0.0,0.0,0.0,0.0,0.0,0.0,0.0,0.0,-1.443,0.63,10.38,0.0,0.0,0.0,0.0,0.0,0.0,0.0,0.0,0.0
