%time,field.header.seq,field.header.stamp,field.header.frame_id,field.orientation.x,field.orientation.y,field.orientation.z,field.orientation.w,field.orientation_covariance0,field.orientation_covariance1,field.orientation_covariance2,field.orientation_covariance3,field.orientation_covariance4,field.orientation_covariance5,field.orientation_covariance6,field.orientation_covariance7,field.orientation_covariance8,field.angular_velocity.x,field.angular_velocity.y,field.angular_velocity.z,field.angular_velocity_covariance0,field.angular_velocity_covariance1,field.angular_velocity_covariance2,field.angular_velocity_covariance3,field.angular_velocity_covariance4,field.angular_velocity_covariance5,field.angular_velocity_covariance6,field.angular_velocity_covariance7,field.angular_velocity_covariance8,field.linear_acceleration.x,field.linear_acceleration.y,field.linear_acceleration.z,field.linear_acceleration_covariance0,field.linear_acceleration_covariance1,field.linear_acceleration_covariance2,field.linear_acceleration_covariance3,field.linear_acceleration_covariance4,field.linear_acceleration_covariance5,field.linear_acceleration_covariance6,field.linear_acceleration_covariance7,field.linear_acceleration_covariance8
1576104151412829828,39442,1576104151411713123,,0.0,0.0,0.0,0.0,0.0,0.0,0.0,0.0,0.0,0.0,0.0,0.0,0.0,-0.003,-0.0,-0.0,0.0,0.0,0.0,0.0,0.0,0.0,0.0,0.0,0.0,0.218,0.461,9.78,0.0,0.0,0.0,0.0,0.0,0.0,0.0,0.0,0.0
1576104151412880976,39443,1576104151412210702,,0.0,0.0,0.0,0.0,0.0,0.0,0.0,0.0,0.0,0.0,0.0,0.0,0.0,-0.001,0.001,-0.0,0.0,0.0,0.0,0.0,0.0,0.0,0.0,0.0,0.0,0.156,0.342,9.7,0.0,0.0,0.0,0.0,0.0,0.0,0.0,0.0,0.0
1576104151414499191,39444,1576104151414095878,,0.0,0.0,0.0,0.0,0.0,0.0,0.0,0.0,0.0,0.0,0.0,0.0,0.0,0.005,0.002,-0.0,0.0,0.0,0.0,0.0,0.0,0.0,0.0,0.0,0.0,0.18,0.421,9.87,0.0,0.0,0.0,0.0,0.0,0.0,0.0,0.0,0.0
1576104151415081967,39445,1576104151414671659,,0.0,0.0,0.0,0.0,0.0,0.0,0.0,0.0,0.0,0.0,0.0,0.0,0.0,-0.007,-0.005,0.0,0.0,0.0,0.0,0.0,0.0,0.0,0.0,0.0,0.0,0.163,0.378,9.42,0.0,0.0,0.0,0.0,0.0,0.0,0.0,0.0,0.0
1576104151415700943,39446,1576104151415087223,,0.0,0.0,0.0,0.0,0.0,0.0,0.0,0.0,0.0,0.0,0.0,0.0,0.0,-0.006,0.006,0.0,0.0,0.0,0.0,0.0,0.0,0.0,0.0,0.0,0.0,0.144,0.414,9.62,0.0,0.0,0.0,0.0,0.0,0.0,0.0,0.0,0.0
1576104151415982665,39447,1576104151415403366,,0.0,0.0,0.0,0.0,0.0,0.0,0.0,0.0,0.0,0.0,0.0,0.0,0.0,0.003,-0.009,0.0,0.0,0.0,0.0,0.0,0.0,0.0,0.0,0.0,0.0,0.204,0.485,10.09,0.0,0.0,0.0,0.0,0.0,0.0,0.0,0.0,0.0
1576104151416463040,39448,1576104151416065931,,0.0,0.0,0.0,0.0,0.0,0.0,0.0,0.0,0.0,0.0,0.0,0.0,0.0,0.0,0.006,0.0,0.0,0.0,0.0,0.0,0.0,0.0,0.0,0.0,0.0,0.177,0.399,9.53,0.0,0.0,0.0,0.0,0.0,0.0,0.0,0.0,0.0
1576104151416788795,39449,1576104151416470766,,0.0,0.0,0.0,0.0,0.0,0.0,0.0,0.0,0.0,0.0,0.0,0.0,0.0,-0.001,0.001,0.01,0.0,0.0,0.0,0.0,0.0,0.0,0.0,0.0,0.0,0.194,0.33,9.58,0.0,0.0,0.0,0.0,0.0,0.0,0.0,0.0,0.0
1576104151417245757,39450,1576104151416877269,,0.0,0.0,0.0,0.0,0.0,0.0,0.0,0.0,0.0,0.0,0.0,0.0,0.0,-0.005,-0.005,0.0,0.0,0.0,0.0,0.0,0.0,0.0,0.0,0.0,0.0,0.249,0.327,9.82,0.0,0.0,0.0,0.0,0.0,0.0,0.0,0.0,0.0
1576104151417644497,39451,1576104151417308568,,0.0,0.0,0.0,0.0,0.0,0.0,0.0,0.0,0.0,0.0,0.0,0.0,0.0,0.001,-0.0,0.0,0.0,0.0,0.0,0.0,0.0,0.0,0.0,0.0,0.0,0.208,0.406,9.59,0.0,0.0,0.0,0.0,0.0,0.0,0.0,0.0,0.0
1576104151418299790,39452,1576104151417689561,,0.0,0.0,0.0,0.0,0.0,0.0,0.0,0.0,0.0,0.0,0.0,0.0,0.0,0.001,-0.0,0.0,0.0,0.0,0.0,0.0,0.0,0.0,0.0,0.0,0.0,0.244,0.33,9.72,0.0,0.0,0.0,0.0,0.0,0.0,0.0,0.0,0.0
1576104151418361605,39453,1576104151417962551,,0.0,0.0,0.0,0.0,0.0,0.0,0.0,0.0,0.0,0.0,0.0,0.0,0.0,-0.002,-0.0,0.0,0.0,0.0,0.0,0.0,0.0,0.0,0.0,0.0,0.0,0.314,0.272,9.69,0.0,0.0,0.0,0.0,0.0,0.0,0.0,0.0,0.0
1576104151418749184,39454,1576104151418449163,,0.0,0.0,0.0,0.0,0.0,0.0,0.0,0.0,0.0,0.0,0.0,0.0,0.0,-0.001,-0.001,0.02,0.0,0.0,0.0,0.0,0.0,0.0,0.0,0.0,0.0,0.347,0.268,9.6,0.0,0.0,0.0,0.0,0.0,0.0,0.0,0.0,0.0
1576104151421162699,39455,1576104151420695066,,0.0,0.0,0.0,0.0,0.0,0.0,0.0,0.0,0.0,0.0,0.0,0.0,0.0,0.001,-0.003,0.0,0.0,0.0,0.0,0.0,0.0,0.0,0.0,0.0,0.0,0.376,0.251,9.78,0.0,0.0,0.0,0.0,0.0,0.0,0.0,0.0,0.0
1576104151424729287,39456,1576104151424248456,,0.0,0.0,0.0,0.0,0.0,0.0,0.0,0.0,0.0,0.0,0.0,0.0,0.0,0.0,-0.0,0.0,0.0,0.0,0.0,0.0,0.0,0.0,0.0,0.0,0.0,0.429,0.189,9.67,0.0,0.0,0.0,0.0,0.0,0.0,0.0,0.0,0.0
1576104151426090627,39457,1576104151425449609,,0.0,0.0,0.0,0.0,0.0,0.0,0.0,0.0,0.0,0.0,0.0,0.0,0.0,-0.005,0.001,0.0,0.0,0.0,0.0,0.0,0.0,0.0,0.0,0.0,0.0,0.481,0.15,9.75,0.0,0.0,0.0,0.0,0.0,0.0,0.0,0.0,0.0
1576104151431410930,39458,1576104151430783271,,0.0,0.0,0.0,0.0,0.0,0.0,0.0,0.0,0.0,0.0,0.0,0.0,0.0,-0.003,0.002,0.02,0.0,0.0,0.0,0.0,0.0,0.0,0.0,0.0,0.0,0.548,0.066,9.63,0.0,0.0,0.0,0.0,0.0,0.0,0.0,0.0,0.0
1576104151434790284,39459,1576104151434119701,,0.0,0.0,0.0,0.0,0.0,0.0,0.0,0.0,0.0,0.0,0.0,0.0,0.0,-0.001,-0.001,0.0,0.0,0.0,0.0,0.0,0.0,0.0,0.0,0.0,0.0,0.558,0.066,9.74,0.0,0.0,0.0,0.0,0.0,0.0,0.0,0.0,0.0
1576104151437208348,39460,1576104151436409711,,0.0,0.0,0.0,0.0,0.0,0.0,0.0,0.0,0.0,0.0,0.0,0.0,0.0,0.001,-0.001,0.0,0.0,0.0,0.0,0.0,0.0,0.0,0.0,0.0,0.0,0.56,0.081,9.78,0.0,0.0,0.0,0.0,0.0,0.0,0.0,0.0,0.0
1576104151439666783,39461,1576104151438868999,,0.0,0.0,0.0,0.0,0.0,0.0,0.0,0.0,0.0,0.0,0.0,0.0,0.0,0.0,0.002,0.01,0.0,0.0,0.0,0.0,0.0,0.0,0.0,0.0,0.0,0.596,0.016,9.57,0.0,0.0,0.0,0.0,0.0,0.0,0.0,0.0,0.0
1576104151443595408,39462,1576104151442942380,,0.0,0.0,0.0,0.0,0.0,0.0,0.0,0.0,0.0,0.0,0.0,0.0,0.0,0.001,-0.003,0.0,0.0,0.0,0.0,0.0,0.0,0.0,0.0,0.0,0.0,0.594,0.014,9.8,0.0,0.0,0.0,0.0,0.0,0.0,0.0,0.0,0.0
1576104151445810676,39463,1576104151445160627,,0.0,0.0,0.0,0.0,0.0,0.0,0.0,0.0,0.0,0.0,0.0,0.0,0.0,0.0,0.002,0.0,0.0,0.0,0.0,0.0,0.0,0.0,0.0,0.0,0.0,0.57,0.033,9.71,0.0,0.0,0.0,0.0,0.0,0.0,0.0,0.0,0.0
1576104151447937906,39464,1576104151447304010,,0.0,0.0,0.0,0.0,0.0,0.0,0.0,0.0,0.0,0.0,0.0,0.0,0.0,0.001,0.002,0.01,0.0,0.0,0.0,0.0,0.0,0.0,0.0,0.0,0.0,0.58,0.021,9.67,0.0,0.0,0.0,0.0,0.0,0.0,0.0,0.0,0.0
1576104151451183698,39465,1576104151450613498,,0.0,0.0,0.0,0.0,0.0,0.0,0.0,0.0,0.0,0.0,0.0,0.0,0.0,0.003,0.001,0.0,0.0,0.0,0.0,0.0,0.0,0.0,0.0,0.0,0.0,0.608,0.016,9.72,0.0,0.0,0.0,0.0,0.0,0.0,0.0,0.0,0.0
1576104151453535293,39466,1576104151452903270,,0.0,0.0,0.0,0.0,0.0,0.0,0.0,0.0,0.0,0.0,0.0,0.0,0.0,0.003,-0.0,0.0,0.0,0.0,0.0,0.0,0.0,0.0,0.0,0.0,0.0,0.577,0.009,9.66,0.0,0.0,0.0,0.0,0.0,0.0,0.0,0.0,0.0
1576104151455808937,39467,1576104151455131053,,0.0,0.0,0.0,0.0,0.0,0.0,0.0,0.0,0.0,0.0,0.0,0.0,0.0,0.0,-0.0,0.0,0.0,0.0,0.0,0.0,0.0,0.0,0.0,0.0,0.0,0.553,0.031,9.66,0.0,0.0,0.0,0.0,0.0,0.0,0.0,0.0,0.0
1576104151459325070,39468,1576104151458683490,,0.0,0.0,0.0,0.0,0.0,0.0,0.0,0.0,0.0,0.0,0.0,0.0,0.0,-0.002,-0.0,0.0,0.0,0.0,0.0,0.0,0.0,0.0,0.0,0.0,0.0,0.541,0.045,9.71,0.0,0.0,0.0,0.0,0.0,0.0,0.0,0.0,0.0
1576104151460372366,39469,1576104151459692239,,0.0,0.0,0.0,0.0,0.0,0.0,0.0,0.0,0.0,0.0,0.0,0.0,0.0,0.005,0.001,-0.0,0.0,0.0,0.0,0.0,0.0,0.0,0.0,0.0,0.0,0.539,0.088,9.7,0.0,0.0,0.0,0.0,0.0,0.0,0.0,0.0,0.0
1576104151462468903,39470,1576104151461903810,,0.0,0.0,0.0,0.0,0.0,0.0,0.0,0.0,0.0,0.0,0.0,0.0,0.0,0.001,0.003,-0.0,0.0,0.0,0.0,0.0,0.0,0.0,0.0,0.0,0.0,0.51,0.086,9.66,0.0,0.0,0.0,0.0,0.0,0.0,0.0,0.0,0.0
1576104151465974112,39471,1576104151465352773,,0.0,0.0,0.0,0.0,0.0,0.0,0.0,0.0,0.0,0.0,0.0,0.0,0.0,0.001,0.001,-0.0,0.0,0.0,0.0,0.0,0.0,0.0,0.0,0.0,0.0,0.481,0.105,9.71,0.0,0.0,0.0,0.0,0.0,0.0,0.0,0.0,0.0
1576104151468138366,39472,1576104151467582464,,0.0,0.0,0.0,0.0,0.0,0.0,0.0,0.0,0.0,0.0,0.0,0.0,0.0,0.005,-0.0,-0.0,0.0,0.0,0.0,0.0,0.0,0.0,0.0,0.0,0.0,0.453,0.107,9.71,0.0,0.0,0.0,0.0,0.0,0.0,0.0,0.0,0.0
1576104151470564263,39473,1576104151469966888,,0.0,0.0,0.0,0.0,0.0,0.0,0.0,0.0,0.0,0.0,0.0,0.0,0.0,0.001,0.001,-0.0,0.0,0.0,0.0,0.0,0.0,0.0,0.0,0.0,0.0,0.441,0.174,9.66,0.0,0.0,0.0,0.0,0.0,0.0,0.0,0.0,0.0
1576104151473934839,39474,1576104151473258495,,0.0,0.0,0.0,0.0,0.0,0.0,0.0,0.0,0.0,0.0,0.0,0.0,0.0,0.0,0.002,-0.0,0.0,0.0,0.0,0.0,0.0,0.0,0.0,0.0,0.0,0.393,0.189,9.66,0.0,0.0,0.0,0.0,0.0,0.0,0.0,0.0,0.0
1576104151480514559,39475,1576104151480001688,,0.0,0.0,0.0,0.0,0.0,0.0,0.0,0.0,0.0,0.0,0.0,0.0,0.0,0.004,0.003,-0.0,0.0,0.0,0.0,0.0,0.0,0.0,0.0,0.0,0.0,0.369,0.191,9.74,0.0,0.0,0.0,0.0,0.0,0.0,0.0,0.0,0.0
1576104151534111309,39476,1576104151533408164,,0.0,0.0,0.0,0.0,0.0,0.0,0.0,0.0,0.0,0.0,0.0,0.0,0.0,-0.001,0.003,-0.01,0.0,0.0,0.0,0.0,0.0,0.0,0.0,0.0,0.0,0.314,0.263,9.7,0.0,0.0,0.0,0.0,0.0,0.0,0.0,0.0,0.0
1576104151534948115,39477,1576104151534489870,,0.0,0.0,0.0,0.0,0.0,0.0,0.0,0.0,0.0,0.0,0.0,0.0,0.0,0.005,0.001,-0.0,0.0,0.0,0.0,0.0,0.0,0.0,0.0,0.0,0.0,0.146,0.394,9.7,0.0,0.0,0.0,0.0,0.0,0.0,0.0,0.0,0.0
1576104151535637711,39478,1576104151535287141,,0.0,0.0,0.0,0.0,0.0,0.0,0.0,0.0,0.0,0.0,0.0,0.0,0.0,0.001,0.001,-0.01,0.0,0.0,0.0,0.0,0.0,0.0,0.0,0.0,0.0,0.153,0.394,9.67,0.0,0.0,0.0,0.0,0.0,0.0,0.0,0.0,0.0
1576104151536650832,39479,1576104151535838365,,0.0,0.0,0.0,0.0,0.0,0.0,0.0,0.0,0.0,0.0,0.0,0.0,0.0,0.0,-0.0,-0.0,0.0,0.0,0.0,0.0,0.0,0.0,0.0,0.0,0.0,0.12,0.449,9.68,0.0,0.0,0.0,0.0,0.0,0.0,0.0,0.0,0.0
1576104151537883879,39480,1576104151536999464,,0.0,0.0,0.0,0.0,0.0,0.0,0.0,0.0,0.0,0.0,0.0,0.0,0.0,0.001,-0.001,-0.0,0.0,0.0,0.0,0.0,0.0,0.0,0.0,0.0,0.0,0.125,0.54,9.7,0.0,0.0,0.0,0.0,0.0,0.0,0.0,0.0,0.0
1576104151538138396,39481,1576104151537599325,,0.0,0.0,0.0,0.0,0.0,0.0,0.0,0.0,0.0,0.0,0.0,0.0,0.0,0.001,-0.0,-0.0,0.0,0.0,0.0,0.0,0.0,0.0,0.0,0.0,0.0,0.182,0.54,9.68,0.0,0.0,0.0,0.0,0.0,0.0,0.0,0.0,0.0
1576104151538599161,39482,1576104151538256883,,0.0,0.0,0.0,0.0,0.0,0.0,0.0,0.0,0.0,0.0,0.0,0.0,0.0,0.004,-0.0,0.0,0.0,0.0,0.0,0.0,0.0,0.0,0.0,0.0,0.0,0.194,0.54,9.7,0.0,0.0,0.0,0.0,0.0,0.0,0.0,0.0,0.0
1576104151538940660,39483,1576104151538629293,,0.0,0.0,0.0,0.0,0.0,0.0,0.0,0.0,0.0,0.0,0.0,0.0,0.0,0.001,0.001,0.0,0.0,0.0,0.0,0.0,0.0,0.0,0.0,0.0,0.0,0.22,0.56,9.59,0.0,0.0,0.0,0.0,0.0,0.0,0.0,0.0,0.0
1576104151539642688,39484,1576104151539132595,,0.0,0.0,0.0,0.0,0.0,0.0,0.0,0.0,0.0,0.0,0.0,0.0,0.0,0.0,-0.001,0.0,0.0,0.0,0.0,0.0,0.0,0.0,0.0,0.0,0.0,0.283,0.533,9.78,0.0,0.0,0.0,0.0,0.0,0.0,0.0,0.0,0.0
1576104151539705153,39485,1576104151539394617,,0.0,0.0,0.0,0.0,0.0,0.0,0.0,0.0,0.0,0.0,0.0,0.0,0.0,0.001,0.001,0.01,0.0,0.0,0.0,0.0,0.0,0.0,0.0,0.0,0.0,0.299,0.519,9.75,0.0,0.0,0.0,0.0,0.0,0.0,0.0,0.0,0.0
1576104151540311163,39486,1576104151539797306,,0.0,0.0,0.0,0.0,0.0,0.0,0.0,0.0,0.0,0.0,0.0,0.0,0.0,0.003,-0.0,0.0,0.0,0.0,0.0,0.0,0.0,0.0,0.0,0.0,0.0,0.328,0.509,9.64,0.0,0.0,0.0,0.0,0.0,0.0,0.0,0.0,0.0
1576104151540441951,39487,1576104151540055751,,0.0,0.0,0.0,0.0,0.0,0.0,0.0,0.0,0.0,0.0,0.0,0.0,0.0,0.001,-0.003,0.0,0.0,0.0,0.0,0.0,0.0,0.0,0.0,0.0,0.0,0.352,0.526,9.66,0.0,0.0,0.0,0.0,0.0,0.0,0.0,0.0,0.0
1576104151541057203,39488,1576104151540400266,,0.0,0.0,0.0,0.0,0.0,0.0,0.0,0.0,0.0,0.0,0.0,0.0,0.0,-0.001,-0.001,0.0,0.0,0.0,0.0,0.0,0.0,0.0,0.0,0.0,0.0,0.381,0.507,9.63,0.0,0.0,0.0,0.0,0.0,0.0,0.0,0.0,0.0
1576104151541207141,39489,1576104151540757656,,0.0,0.0,0.0,0.0,0.0,0.0,0.0,0.0,0.0,0.0,0.0,0.0,0.0,0.003,-0.003,0.01,0.0,0.0,0.0,0.0,0.0,0.0,0.0,0.0,0.0,0.405,0.512,9.77,0.0,0.0,0.0,0.0,0.0,0.0,0.0,0.0,0.0
1576104151541613868,39490,1576104151541130304,,0.0,0.0,0.0,0.0,0.0,0.0,0.0,0.0,0.0,0.0,0.0,0.0,0.0,0.0,-0.001,0.0,0.0,0.0,0.0,0.0,0.0,0.0,0.0,0.0,0.0,0.402,0.502,9.74,0.0,0.0,0.0,0.0,0.0,0.0,0.0,0.0,0.0
1576104151543019550,39491,1576104151542649030,,0.0,0.0,0.0,0.0,0.0,0.0,0.0,0.0,0.0,0.0,0.0,0.0,0.0,0.001,-0.003,0.0,0.0,0.0,0.0,0.0,0.0,0.0,0.0,0.0,0.0,0.46,0.483,9.66,0.0,0.0,0.0,0.0,0.0,0.0,0.0,0.0,0.0
1576104151546401717,39492,1576104151545988798,,0.0,0.0,0.0,0.0,0.0,0.0,0.0,0.0,0.0,0.0,0.0,0.0,0.0,-0.001,-0.0,0.0,0.0,0.0,0.0,0.0,0.0,0.0,0.0,0.0,0.0,0.457,0.454,9.7,0.0,0.0,0.0,0.0,0.0,0.0,0.0,0.0,0.0
1576104151549887152,39493,1576104151549346446,,0.0,0.0,0.0,0.0,0.0,0.0,0.0,0.0,0.0,0.0,0.0,0.0,0.0,0.0,-0.001,0.0,0.0,0.0,0.0,0.0,0.0,0.0,0.0,0.0,0.0,0.493,0.483,9.66,0.0,0.0,0.0,0.0,0.0,0.0,0.0,0.0,0.0
1576104151552176935,39494,1576104151551678895,,0.0,0.0,0.0,0.0,0.0,0.0,0.0,0.0,0.0,0.0,0.0,0.0,0.0,-0.002,-0.001,0.0,0.0,0.0,0.0,0.0,0.0,0.0,0.0,0.0,0.0,0.486,0.461,9.65,0.0,0.0,0.0,0.0,0.0,0.0,0.0,0.0,0.0
1576104151555252108,39495,1576104151554626226,,0.0,0.0,0.0,0.0,0.0,0.0,0.0,0.0,0.0,0.0,0.0,0.0,0.0,-0.001,-0.001,0.0,0.0,0.0,0.0,0.0,0.0,0.0,0.0,0.0,0.0,0.496,0.442,9.63,0.0,0.0,0.0,0.0,0.0,0.0,0.0,0.0,0.0
1576104151558222391,39496,1576104151557710647,,0.0,0.0,0.0,0.0,0.0,0.0,0.0,0.0,0.0,0.0,0.0,0.0,0.0,-0.001,-0.003,0.0,0.0,0.0,0.0,0.0,0.0,0.0,0.0,0.0,0.0,0.501,0.5,9.81,0.0,0.0,0.0,0.0,0.0,0.0,0.0,0.0,0.0
1576104151562335746,39497,1576104151561855792,,0.0,0.0,0.0,0.0,0.0,0.0,0.0,0.0,0.0,0.0,0.0,0.0,0.0,-0.002,-0.0,0.0,0.0,0.0,0.0,0.0,0.0,0.0,0.0,0.0,0.0,0.505,0.464,9.6,0.0,0.0,0.0,0.0,0.0,0.0,0.0,0.0,0.0
1576104151563465952,39498,1576104151562968254,,0.0,0.0,0.0,0.0,0.0,0.0,0.0,0.0,0.0,0.0,0.0,0.0,0.0,-0.001,-0.004,-0.0,0.0,0.0,0.0,0.0,0.0,0.0,0.0,0.0,0.0,0.539,0.461,9.72,0.0,0.0,0.0,0.0,0.0,0.0,0.0,0.0,0.0
1576104151565600491,39499,1576104151565207004,,0.0,0.0,0.0,0.0,0.0,0.0,0.0,0.0,0.0,0.0,0.0,0.0,0.0,-0.002,0.001,-0.0,0.0,0.0,0.0,0.0,0.0,0.0,0.0,0.0,0.0,0.532,0.464,9.66,0.0,0.0,0.0,0.0,0.0,0.0,0.0,0.0,0.0
1576104151569049805,39500,1576104151568574190,,0.0,0.0,0.0,0.0,0.0,0.0,0.0,0.0,0.0,0.0,0.0,0.0,0.0,0.001,0.001,-0.0,0.0,0.0,0.0,0.0,0.0,0.0,0.0,0.0,0.0,0.493,0.442,9.64,0.0,0.0,0.0,0.0,0.0,0.0,0.0,0.0,0.0
1576104151573967852,39501,1576104151573442459,,0.0,0.0,0.0,0.0,0.0,0.0,0.0,0.0,0.0,0.0,0.0,0.0,0.0,0.0,0.001,-0.0,0.0,0.0,0.0,0.0,0.0,0.0,0.0,0.0,0.0,0.46,0.473,9.7,0.0,0.0,0.0,0.0,0.0,0.0,0.0,0.0,0.0
1576104151577940145,39502,1576104151577468633,,0.0,0.0,0.0,0.0,0.0,0.0,0.0,0.0,0.0,0.0,0.0,0.0,0.0,0.001,-0.0,-0.0,0.0,0.0,0.0,0.0,0.0,0.0,0.0,0.0,0.0,0.443,0.488,9.68,0.0,0.0,0.0,0.0,0.0,0.0,0.0,0.0,0.0
1576104151583774082,39503,1576104151583104372,,0.0,0.0,0.0,0.0,0.0,0.0,0.0,0.0,0.0,0.0,0.0,0.0,0.0,0.003,-0.003,-0.0,0.0,0.0,0.0,0.0,0.0,0.0,0.0,0.0,0.0,0.412,0.49,9.73,0.0,0.0,0.0,0.0,0.0,0.0,0.0,0.0,0.0
1576104151586010435,39504,1576104151585323095,,0.0,0.0,0.0,0.0,0.0,0.0,0.0,0.0,0.0,0.0,0.0,0.0,0.0,0.0,-0.0,-0.0,0.0,0.0,0.0,0.0,0.0,0.0,0.0,0.0,0.0,0.41,0.488,9.69,0.0,0.0,0.0,0.0,0.0,0.0,0.0,0.0,0.0
1576104151611301144,39505,1576104151610434770,,0.0,0.0,0.0,0.0,0.0,0.0,0.0,0.0,0.0,0.0,0.0,0.0,0.0,0.003,0.002,-0.0,0.0,0.0,0.0,0.0,0.0,0.0,0.0,0.0,0.0,0.345,0.514,9.66,0.0,0.0,0.0,0.0,0.0,0.0,0.0,0.0,0.0
1576104151612806645,39506,1576104151612122774,,0.0,0.0,0.0,0.0,0.0,0.0,0.0,0.0,0.0,0.0,0.0,0.0,0.0,0.0,0.002,-0.0,0.0,0.0,0.0,0.0,0.0,0.0,0.0,0.0,0.0,0.307,0.507,9.68,0.0,0.0,0.0,0.0,0.0,0.0,0.0,0.0,0.0
1576104151613434418,39507,1576104151612500429,,0.0,0.0,0.0,0.0,0.0,0.0,0.0,0.0,0.0,0.0,0.0,0.0,0.0,-0.003,0.003,-0.0,0.0,0.0,0.0,0.0,0.0,0.0,0.0,0.0,0.0,0.314,0.5,9.71,0.0,0.0,0.0,0.0,0.0,0.0,0.0,0.0,0.0
1576104151614558485,39508,1576104151613426208,,0.0,0.0,0.0,0.0,0.0,0.0,0.0,0.0,0.0,0.0,0.0,0.0,0.0,0.001,-0.0,-0.0,0.0,0.0,0.0,0.0,0.0,0.0,0.0,0.0,0.0,0.311,0.476,9.69,0.0,0.0,0.0,0.0,0.0,0.0,0.0,0.0,0.0
1576104151614655619,39509,1576104151613814830,,0.0,0.0,0.0,0.0,0.0,0.0,0.0,0.0,0.0,0.0,0.0,0.0,0.0,0.0,-0.0,0.0,0.0,0.0,0.0,0.0,0.0,0.0,0.0,0.0,0.0,0.285,0.464,9.68,0.0,0.0,0.0,0.0,0.0,0.0,0.0,0.0,0.0
1576104151614682954,39510,1576104151614138841,,0.0,0.0,0.0,0.0,0.0,0.0,0.0,0.0,0.0,0.0,0.0,0.0,0.0,0.0,-0.001,0.0,0.0,0.0,0.0,0.0,0.0,0.0,0.0,0.0,0.0,0.304,0.483,9.66,0.0,0.0,0.0,0.0,0.0,0.0,0.0,0.0,0.0
1576104151615674395,39511,1576104151615264177,,0.0,0.0,0.0,0.0,0.0,0.0,0.0,0.0,0.0,0.0,0.0,0.0,0.0,0.0,-0.0,0.0,0.0,0.0,0.0,0.0,0.0,0.0,0.0,0.0,0.0,0.29,0.478,9.68,0.0,0.0,0.0,0.0,0.0,0.0,0.0,0.0,0.0
1576104151617664741,39512,1576104151616776466,,0.0,0.0,0.0,0.0,0.0,0.0,0.0,0.0,0.0,0.0,0.0,0.0,0.0,-0.001,-0.0,0.0,0.0,0.0,0.0,0.0,0.0,0.0,0.0,0.0,0.0,0.278,0.445,9.72,0.0,0.0,0.0,0.0,0.0,0.0,0.0,0.0,0.0
1576104151617698086,39513,1576104151617100000,,0.0,0.0,0.0,0.0,0.0,0.0,0.0,0.0,0.0,0.0,0.0,0.0,0.0,-0.001,-0.0,0.0,0.0,0.0,0.0,0.0,0.0,0.0,0.0,0.0,0.0,0.275,0.442,9.68,0.0,0.0,0.0,0.0,0.0,0.0,0.0,0.0,0.0
1576104151618910344,39514,1576104151618261814,,0.0,0.0,0.0,0.0,0.0,0.0,0.0,0.0,0.0,0.0,0.0,0.0,0.0,0.0,-0.001,0.0,0.0,0.0,0.0,0.0,0.0,0.0,0.0,0.0,0.0,0.29,0.426,9.66,0.0,0.0,0.0,0.0,0.0,0.0,0.0,0.0,0.0
1576104151620370459,39515,1576104151619763374,,0.0,0.0,0.0,0.0,0.0,0.0,0.0,0.0,0.0,0.0,0.0,0.0,0.0,-0.002,-0.0,0.0,0.0,0.0,0.0,0.0,0.0,0.0,0.0,0.0,0.0,0.316,0.392,9.7,0.0,0.0,0.0,0.0,0.0,0.0,0.0,0.0,0.0
1576104151624437874,39516,1576104151623740196,,0.0,0.0,0.0,0.0,0.0,0.0,0.0,0.0,0.0,0.0,0.0,0.0,0.0,-0.003,-0.0,0.0,0.0,0.0,0.0,0.0,0.0,0.0,0.0,0.0,0.0,0.347,0.366,9.73,0.0,0.0,0.0,0.0,0.0,0.0,0.0,0.0,0.0
1576104151627839391,39517,1576104151627162218,,0.0,0.0,0.0,0.0,0.0,0.0,0.0,0.0,0.0,0.0,0.0,0.0,0.0,-0.001,0.001,0.0,0.0,0.0,0.0,0.0,0.0,0.0,0.0,0.0,0.0,0.347,0.323,9.71,0.0,0.0,0.0,0.0,0.0,0.0,0.0,0.0,0.0
1576104151630034906,39518,1576104151629364728,,0.0,0.0,0.0,0.0,0.0,0.0,0.0,0.0,0.0,0.0,0.0,0.0,0.0,-0.002,0.001,0.0,0.0,0.0,0.0,0.0,0.0,0.0,0.0,0.0,0.0,0.354,0.315,9.69,0.0,0.0,0.0,0.0,0.0,0.0,0.0,0.0,0.0
1576104151631039749,39519,1576104151630365133,,0.0,0.0,0.0,0.0,0.0,0.0,0.0,0.0,0.0,0.0,0.0,0.0,0.0,-0.002,0.001,0.0,0.0,0.0,0.0,0.0,0.0,0.0,0.0,0.0,0.0,0.362,0.306,9.69,0.0,0.0,0.0,0.0,0.0,0.0,0.0,0.0,0.0
1576104151684397017,39520,1576104151683126688,,0.0,0.0,0.0,0.0,0.0,0.0,0.0,0.0,0.0,0.0,0.0,0.0,0.0,-0.002,0.001,0.0,0.0,0.0,0.0,0.0,0.0,0.0,0.0,0.0,0.0,0.376,0.289,9.68,0.0,0.0,0.0,0.0,0.0,0.0,0.0,0.0,0.0
1576104151684438606,39521,1576104151683736562,,0.0,0.0,0.0,0.0,0.0,0.0,0.0,0.0,0.0,0.0,0.0,0.0,0.0,-0.002,0.002,0.0,0.0,0.0,0.0,0.0,0.0,0.0,0.0,0.0,0.0,0.405,0.241,9.69,0.0,0.0,0.0,0.0,0.0,0.0,0.0,0.0,0.0
1576104151684674438,39522,1576104151684034585,,0.0,0.0,0.0,0.0,0.0,0.0,0.0,0.0,0.0,0.0,0.0,0.0,0.0,-0.001,0.001,0.0,0.0,0.0,0.0,0.0,0.0,0.0,0.0,0.0,0.0,0.383,0.248,9.69,0.0,0.0,0.0,0.0,0.0,0.0,0.0,0.0,0.0
1576104151685118674,39523,1576104151684711694,,0.0,0.0,0.0,0.0,0.0,0.0,0.0,0.0,0.0,0.0,0.0,0.0,0.0,0.0,-0.001,0.0,0.0,0.0,0.0,0.0,0.0,0.0,0.0,0.0,0.0,0.386,0.222,9.71,0.0,0.0,0.0,0.0,0.0,0.0,0.0,0.0,0.0
1576104151685777899,39524,1576104151685130834,,0.0,0.0,0.0,0.0,0.0,0.0,0.0,0.0,0.0,0.0,0.0,0.0,0.0,0.0,0.001,0.0,0.0,0.0,0.0,0.0,0.0,0.0,0.0,0.0,0.0,0.398,0.224,9.71,0.0,0.0,0.0,0.0,0.0,0.0,0.0,0.0,0.0
1576104151685822018,39525,1576104151685452222,,0.0,0.0,0.0,0.0,0.0,0.0,0.0,0.0,0.0,0.0,0.0,0.0,0.0,0.0,0.001,0.0,0.0,0.0,0.0,0.0,0.0,0.0,0.0,0.0,0.0,0.371,0.201,9.69,0.0,0.0,0.0,0.0,0.0,0.0,0.0,0.0,0.0
1576104151686259344,39526,1576104151685881137,,0.0,0.0,0.0,0.0,0.0,0.0,0.0,0.0,0.0,0.0,0.0,0.0,0.0,-0.001,0.001,0.0,0.0,0.0,0.0,0.0,0.0,0.0,0.0,0.0,0.0,0.362,0.203,9.71,0.0,0.0,0.0,0.0,0.0,0.0,0.0,0.0,0.0
1576104151686963830,39527,1576104151686287403,,0.0,0.0,0.0,0.0,0.0,0.0,0.0,0.0,0.0,0.0,0.0,0.0,0.0,-0.002,-0.0,0.0,0.0,0.0,0.0,0.0,0.0,0.0,0.0,0.0,0.0,0.347,0.184,9.69,0.0,0.0,0.0,0.0,0.0,0.0,0.0,0.0,0.0
1576104151687071811,39528,1576104151686662673,,0.0,0.0,0.0,0.0,0.0,0.0,0.0,0.0,0.0,0.0,0.0,0.0,0.0,0.003,-0.001,-0.0,0.0,0.0,0.0,0.0,0.0,0.0,0.0,0.0,0.0,0.34,0.167,9.71,0.0,0.0,0.0,0.0,0.0,0.0,0.0,0.0,0.0
1576104151687550279,39529,1576104151687196731,,0.0,0.0,0.0,0.0,0.0,0.0,0.0,0.0,0.0,0.0,0.0,0.0,0.0,0.001,0.001,-0.0,0.0,0.0,0.0,0.0,0.0,0.0,0.0,0.0,0.0,0.345,0.167,9.7,0.0,0.0,0.0,0.0,0.0,0.0,0.0,0.0,0.0
1576104151687848583,39530,1576104151687538146,,0.0,0.0,0.0,0.0,0.0,0.0,0.0,0.0,0.0,0.0,0.0,0.0,0.0,-0.001,0.002,-0.0,0.0,0.0,0.0,0.0,0.0,0.0,0.0,0.0,0.0,0.328,0.172,9.7,0.0,0.0,0.0,0.0,0.0,0.0,0.0,0.0,0.0
1576104151688296461,39531,1576104151687965393,,0.0,0.0,0.0,0.0,0.0,0.0,0.0,0.0,0.0,0.0,0.0,0.0,0.0,0.001,-0.0,-0.0,0.0,0.0,0.0,0.0,0.0,0.0,0.0,0.0,0.0,0.275,0.203,9.68,0.0,0.0,0.0,0.0,0.0,0.0,0.0,0.0,0.0
1576104151688594598,39532,1576104151688278675,,0.0,0.0,0.0,0.0,0.0,0.0,0.0,0.0,0.0,0.0,0.0,0.0,0.0,0.004,-0.001,-0.0,0.0,0.0,0.0,0.0,0.0,0.0,0.0,0.0,0.0,0.268,0.198,9.68,0.0,0.0,0.0,0.0,0.0,0.0,0.0,0.0,0.0
1576104151689171348,39533,1576104151688576698,,0.0,0.0,0.0,0.0,0.0,0.0,0.0,0.0,0.0,0.0,0.0,0.0,0.0,0.003,-0.001,-0.0,0.0,0.0,0.0,0.0,0.0,0.0,0.0,0.0,0.0,0.261,0.22,9.7,0.0,0.0,0.0,0.0,0.0,0.0,0.0,0.0,0.0
1576104151689201307,39534,1576104151688867330,,0.0,0.0,0.0,0.0,0.0,0.0,0.0,0.0,0.0,0.0,0.0,0.0,0.0,-0.001,0.001,-0.0,0.0,0.0,0.0,0.0,0.0,0.0,0.0,0.0,0.0,0.278,0.212,9.7,0.0,0.0,0.0,0.0,0.0,0.0,0.0,0.0,0.0
1576104151689701019,39535,1576104151689389228,,0.0,0.0,0.0,0.0,0.0,0.0,0.0,0.0,0.0,0.0,0.0,0.0,0.0,0.001,-0.0,-0.0,0.0,0.0,0.0,0.0,0.0,0.0,0.0,0.0,0.0,0.235,0.217,9.72,0.0,0.0,0.0,0.0,0.0,0.0,0.0,0.0,0.0
1576104151689980274,39536,1576104151689727544,,0.0,0.0,0.0,0.0,0.0,0.0,0.0,0.0,0.0,0.0,0.0,0.0,0.0,-0.002,-0.0,0.0,0.0,0.0,0.0,0.0,0.0,0.0,0.0,0.0,0.0,0.256,0.258,9.7,0.0,0.0,0.0,0.0,0.0,0.0,0.0,0.0,0.0
1576104151690677176,39537,1576104151690057992,,0.0,0.0,0.0,0.0,0.0,0.0,0.0,0.0,0.0,0.0,0.0,0.0,0.0,0.0,-0.0,0.0,0.0,0.0,0.0,0.0,0.0,0.0,0.0,0.0,0.0,0.259,0.26,9.71,0.0,0.0,0.0,0.0,0.0,0.0,0.0,0.0,0.0
1576104151690713733,39538,1576104151690315723,,0.0,0.0,0.0,0.0,0.0,0.0,0.0,0.0,0.0,0.0,0.0,0.0,0.0,0.003,-0.0,0.0,0.0,0.0,0.0,0.0,0.0,0.0,0.0,0.0,0.0,0.252,0.272,9.68,0.0,0.0,0.0,0.0,0.0,0.0,0.0,0.0,0.0
1576104151710478763,39539,1576104151709824323,,0.0,0.0,0.0,0.0,0.0,0.0,0.0,0.0,0.0,0.0,0.0,0.0,0.0,0.003,0.001,0.0,0.0,0.0,0.0,0.0,0.0,0.0,0.0,0.0,0.0,0.228,0.306,9.68,0.0,0.0,0.0,0.0,0.0,0.0,0.0,0.0,0.0
1576104151712751149,39540,1576104151712216377,,0.0,0.0,0.0,0.0,0.0,0.0,0.0,0.0,0.0,0.0,0.0,0.0,0.0,0.001,-0.001,0.0,0.0,0.0,0.0,0.0,0.0,0.0,0.0,0.0,0.0,0.24,0.33,9.69,0.0,0.0,0.0,0.0,0.0,0.0,0.0,0.0,0.0
1576104151714270530,39541,1576104151713616847,,0.0,0.0,0.0,0.0,0.0,0.0,0.0,0.0,0.0,0.0,0.0,0.0,0.0,-0.003,0.001,0.0,0.0,0.0,0.0,0.0,0.0,0.0,0.0,0.0,0.0,0.263,0.325,9.67,0.0,0.0,0.0,0.0,0.0,0.0,0.0,0.0,0.0
1576104151714471870,39542,1576104151714013814,,0.0,0.0,0.0,0.0,0.0,0.0,0.0,0.0,0.0,0.0,0.0,0.0,0.0,0.001,-0.0,0.0,0.0,0.0,0.0,0.0,0.0,0.0,0.0,0.0,0.0,0.307,0.356,9.69,0.0,0.0,0.0,0.0,0.0,0.0,0.0,0.0,0.0
1576104151714872769,39543,1576104151714601755,,0.0,0.0,0.0,0.0,0.0,0.0,0.0,0.0,0.0,0.0,0.0,0.0,0.0,0.001,-0.001,0.0,0.0,0.0,0.0,0.0,0.0,0.0,0.0,0.0,0.0,0.321,0.339,9.68,0.0,0.0,0.0,0.0,0.0,0.0,0.0,0.0,0.0
1576104151716271500,39544,1576104151715888023,,0.0,0.0,0.0,0.0,0.0,0.0,0.0,0.0,0.0,0.0,0.0,0.0,0.0,0.003,-0.001,0.0,0.0,0.0,0.0,0.0,0.0,0.0,0.0,0.0,0.0,0.364,0.347,9.68,0.0,0.0,0.0,0.0,0.0,0.0,0.0,0.0,0.0
1576104151716662866,39545,1576104151716239452,,0.0,0.0,0.0,0.0,0.0,0.0,0.0,0.0,0.0,0.0,0.0,0.0,0.0,-0.001,-0.0,0.0,0.0,0.0,0.0,0.0,0.0,0.0,0.0,0.0,0.0,0.405,0.325,9.69,0.0,0.0,0.0,0.0,0.0,0.0,0.0,0.0,0.0
1576104151721298826,39546,1576104151720865011,,0.0,0.0,0.0,0.0,0.0,0.0,0.0,0.0,0.0,0.0,0.0,0.0,0.0,0.001,-0.0,0.0,0.0,0.0,0.0,0.0,0.0,0.0,0.0,0.0,0.0,0.438,0.301,9.7,0.0,0.0,0.0,0.0,0.0,0.0,0.0,0.0,0.0
1576104151721963854,39547,1576104151721380710,,0.0,0.0,0.0,0.0,0.0,0.0,0.0,0.0,0.0,0.0,0.0,0.0,0.0,0.0,0.001,0.0,0.0,0.0,0.0,0.0,0.0,0.0,0.0,0.0,0.0,0.453,0.306,9.68,0.0,0.0,0.0,0.0,0.0,0.0,0.0,0.0,0.0
1576104151724735080,39548,1576104151724183797,,0.0,0.0,0.0,0.0,0.0,0.0,0.0,0.0,0.0,0.0,0.0,0.0,0.0,0.003,0.001,0.0,0.0,0.0,0.0,0.0,0.0,0.0,0.0,0.0,0.0,0.491,0.303,9.69,0.0,0.0,0.0,0.0,0.0,0.0,0.0,0.0,0.0
1576104151729103217,39549,1576104151728523731,,0.0,0.0,0.0,0.0,0.0,0.0,0.0,0.0,0.0,0.0,0.0,0.0,0.0,0.001,-0.0,0.0,0.0,0.0,0.0,0.0,0.0,0.0,0.0,0.0,0.0,0.508,0.28,9.7,0.0,0.0,0.0,0.0,0.0,0.0,0.0,0.0,0.0
1576104151731617026,39550,1576104151730799913,,0.0,0.0,0.0,0.0,0.0,0.0,0.0,0.0,0.0,0.0,0.0,0.0,0.0,-0.001,-0.0,0.0,0.0,0.0,0.0,0.0,0.0,0.0,0.0,0.0,0.0,0.51,0.272,9.7,0.0,0.0,0.0,0.0,0.0,0.0,0.0,0.0,0.0
1576104151734752410,39551,1576104151734047889,,0.0,0.0,0.0,0.0,0.0,0.0,0.0,0.0,0.0,0.0,0.0,0.0,0.0,0.0,0.001,0.0,0.0,0.0,0.0,0.0,0.0,0.0,0.0,0.0,0.0,0.52,0.28,9.69,0.0,0.0,0.0,0.0,0.0,0.0,0.0,0.0,0.0
1576104151735689303,39552,1576104151735086679,,0.0,0.0,0.0,0.0,0.0,0.0,0.0,0.0,0.0,0.0,0.0,0.0,0.0,-0.001,-0.0,-0.0,0.0,0.0,0.0,0.0,0.0,0.0,0.0,0.0,0.0,0.524,0.272,9.69,0.0,0.0,0.0,0.0,0.0,0.0,0.0,0.0,0.0
1576104151737976571,39553,1576104151737257957,,0.0,0.0,0.0,0.0,0.0,0.0,0.0,0.0,0.0,0.0,0.0,0.0,0.0,0.003,-0.0,-0.0,0.0,0.0,0.0,0.0,0.0,0.0,0.0,0.0,0.0,0.505,0.289,9.68,0.0,0.0,0.0,0.0,0.0,0.0,0.0,0.0,0.0
1576104151741229696,39554,1576104151740611553,,0.0,0.0,0.0,0.0,0.0,0.0,0.0,0.0,0.0,0.0,0.0,0.0,0.0,0.004,-0.0,-0.0,0.0,0.0,0.0,0.0,0.0,0.0,0.0,0.0,0.0,0.484,0.311,9.67,0.0,0.0,0.0,0.0,0.0,0.0,0.0,0.0,0.0
1576104151744709609,39555,1576104151743906974,,0.0,0.0,0.0,0.0,0.0,0.0,0.0,0.0,0.0,0.0,0.0,0.0,0.0,0.001,-0.0,-0.0,0.0,0.0,0.0,0.0,0.0,0.0,0.0,0.0,0.0,0.479,0.32,9.69,0.0,0.0,0.0,0.0,0.0,0.0,0.0,0.0,0.0
1576104151745928785,39556,1576104151745298147,,0.0,0.0,0.0,0.0,0.0,0.0,0.0,0.0,0.0,0.0,0.0,0.0,0.0,0.004,0.001,-0.0,0.0,0.0,0.0,0.0,0.0,0.0,0.0,0.0,0.0,0.472,0.332,9.69,0.0,0.0,0.0,0.0,0.0,0.0,0.0,0.0,0.0
1576104151751305837,39557,1576104151750741481,,0.0,0.0,0.0,0.0,0.0,0.0,0.0,0.0,0.0,0.0,0.0,0.0,0.0,0.0,0.001,-0.01,0.0,0.0,0.0,0.0,0.0,0.0,0.0,0.0,0.0,0.441,0.325,9.68,0.0,0.0,0.0,0.0,0.0,0.0,0.0,0.0,0.0
1576104151754193821,39558,1576104151753428697,,0.0,0.0,0.0,0.0,0.0,0.0,0.0,0.0,0.0,0.0,0.0,0.0,0.0,0.001,-0.001,-0.0,0.0,0.0,0.0,0.0,0.0,0.0,0.0,0.0,0.0,0.41,0.339,9.68,0.0,0.0,0.0,0.0,0.0,0.0,0.0,0.0,0.0
1576104151759282291,39559,1576104151758672952,,0.0,0.0,0.0,0.0,0.0,0.0,0.0,0.0,0.0,0.0,0.0,0.0,0.0,0.004,-0.0,-0.01,0.0,0.0,0.0,0.0,0.0,0.0,0.0,0.0,0.0,0.393,0.373,9.67,0.0,0.0,0.0,0.0,0.0,0.0,0.0,0.0,0.0
1576104151760101816,39560,1576104151759391546,,0.0,0.0,0.0,0.0,0.0,0.0,0.0,0.0,0.0,0.0,0.0,0.0,0.0,0.003,-0.0,-0.0,0.0,0.0,0.0,0.0,0.0,0.0,0.0,0.0,0.0,0.331,0.385,9.68,0.0,0.0,0.0,0.0,0.0,0.0,0.0,0.0,0.0
1576104151764262659,39561,1576104151763704061,,0.0,0.0,0.0,0.0,0.0,0.0,0.0,0.0,0.0,0.0,0.0,0.0,0.0,0.001,-0.0,-0.0,0.0,0.0,0.0,0.0,0.0,0.0,0.0,0.0,0.0,0.311,0.411,9.68,0.0,0.0,0.0,0.0,0.0,0.0,0.0,0.0,0.0
1576104151766066136,39562,1576104151765313386,,0.0,0.0,0.0,0.0,0.0,0.0,0.0,0.0,0.0,0.0,0.0,0.0,0.0,0.003,0.001,-0.0,0.0,0.0,0.0,0.0,0.0,0.0,0.0,0.0,0.0,0.275,0.411,9.68,0.0,0.0,0.0,0.0,0.0,0.0,0.0,0.0,0.0
1576104151768148297,39563,1576104151767551183,,0.0,0.0,0.0,0.0,0.0,0.0,0.0,0.0,0.0,0.0,0.0,0.0,0.0,0.001,0.001,-0.0,0.0,0.0,0.0,0.0,0.0,0.0,0.0,0.0,0.0,0.24,0.449,9.67,0.0,0.0,0.0,0.0,0.0,0.0,0.0,0.0,0.0
1576104151771042710,39564,1576104151770255327,,0.0,0.0,0.0,0.0,0.0,0.0,0.0,0.0,0.0,0.0,0.0,0.0,0.0,0.001,0.001,-0.01,0.0,0.0,0.0,0.0,0.0,0.0,0.0,0.0,0.0,0.216,0.476,9.69,0.0,0.0,0.0,0.0,0.0,0.0,0.0,0.0,0.0
1576104151775315737,39565,1576104151774447917,,0.0,0.0,0.0,0.0,0.0,0.0,0.0,0.0,0.0,0.0,0.0,0.0,0.0,0.001,0.001,-0.0,0.0,0.0,0.0,0.0,0.0,0.0,0.0,0.0,0.0,0.184,0.478,9.7,0.0,0.0,0.0,0.0,0.0,0.0,0.0,0.0,0.0
1576104151777282784,39566,1576104151776726007,,0.0,0.0,0.0,0.0,0.0,0.0,0.0,0.0,0.0,0.0,0.0,0.0,0.0,0.003,-0.001,-0.0,0.0,0.0,0.0,0.0,0.0,0.0,0.0,0.0,0.0,0.161,0.502,9.7,0.0,0.0,0.0,0.0,0.0,0.0,0.0,0.0,0.0
1576104151781896312,39567,1576104151781307935,,0.0,0.0,0.0,0.0,0.0,0.0,0.0,0.0,0.0,0.0,0.0,0.0,0.0,0.003,0.001,-0.0,0.0,0.0,0.0,0.0,0.0,0.0,0.0,0.0,0.0,0.127,0.476,9.68,0.0,0.0,0.0,0.0,0.0,0.0,0.0,0.0,0.0
1576104151847710773,39568,1576104151845934152,,0.0,0.0,0.0,0.0,0.0,0.0,0.0,0.0,0.0,0.0,0.0,0.0,0.0,0.003,-0.0,-0.0,0.0,0.0,0.0,0.0,0.0,0.0,0.0,0.0,0.0,0.115,0.464,9.7,0.0,0.0,0.0,0.0,0.0,0.0,0.0,0.0,0.0
1576104151847816537,39569,1576104151846689701,,0.0,0.0,0.0,0.0,0.0,0.0,0.0,0.0,0.0,0.0,0.0,0.0,0.0,0.001,-0.0,0.0,0.0,0.0,0.0,0.0,0.0,0.0,0.0,0.0,0.0,0.141,0.442,9.7,0.0,0.0,0.0,0.0,0.0,0.0,0.0,0.0,0.0
1576104151847838149,39570,1576104151847192049,,0.0,0.0,0.0,0.0,0.0,0.0,0.0,0.0,0.0,0.0,0.0,0.0,0.0,0.0,-0.0,0.0,0.0,0.0,0.0,0.0,0.0,0.0,0.0,0.0,0.0,0.151,0.44,9.68,0.0,0.0,0.0,0.0,0.0,0.0,0.0,0.0,0.0
1576104151848246852,39571,1576104151847748517,,0.0,0.0,0.0,0.0,0.0,0.0,0.0,0.0,0.0,0.0,0.0,0.0,0.0,-0.001,0.001,0.0,0.0,0.0,0.0,0.0,0.0,0.0,0.0,0.0,0.0,0.175,0.421,9.69,0.0,0.0,0.0,0.0,0.0,0.0,0.0,0.0,0.0
1576104151848670942,39572,1576104151848206520,,0.0,0.0,0.0,0.0,0.0,0.0,0.0,0.0,0.0,0.0,0.0,0.0,0.0,0.0,-0.0,0.01,0.0,0.0,0.0,0.0,0.0,0.0,0.0,0.0,0.0,0.189,0.411,9.68,0.0,0.0,0.0,0.0,0.0,0.0,0.0,0.0,0.0
1576104151849294034,39573,1576104151848850250,,0.0,0.0,0.0,0.0,0.0,0.0,0.0,0.0,0.0,0.0,0.0,0.0,0.0,-0.001,-0.0,0.0,0.0,0.0,0.0,0.0,0.0,0.0,0.0,0.0,0.0,0.244,0.392,9.68,0.0,0.0,0.0,0.0,0.0,0.0,0.0,0.0,0.0
1576104151849821839,39574,1576104151849437713,,0.0,0.0,0.0,0.0,0.0,0.0,0.0,0.0,0.0,0.0,0.0,0.0,0.0,-0.001,-0.0,0.0,0.0,0.0,0.0,0.0,0.0,0.0,0.0,0.0,0.0,0.28,0.43,9.7,0.0,0.0,0.0,0.0,0.0,0.0,0.0,0.0,0.0
1576104151850537927,39575,1576104151849902868,,0.0,0.0,0.0,0.0,0.0,0.0,0.0,0.0,0.0,0.0,0.0,0.0,0.0,0.001,0.001,0.0,0.0,0.0,0.0,0.0,0.0,0.0,0.0,0.0,0.0,0.292,0.449,9.68,0.0,0.0,0.0,0.0,0.0,0.0,0.0,0.0,0.0
1576104151851154414,39576,1576104151850208759,,0.0,0.0,0.0,0.0,0.0,0.0,0.0,0.0,0.0,0.0,0.0,0.0,0.0,0.001,0.001,0.01,0.0,0.0,0.0,0.0,0.0,0.0,0.0,0.0,0.0,0.345,0.447,9.69,0.0,0.0,0.0,0.0,0.0,0.0,0.0,0.0,0.0
1576104151851222937,39577,1576104151850554227,,0.0,0.0,0.0,0.0,0.0,0.0,0.0,0.0,0.0,0.0,0.0,0.0,0.0,0.0,0.001,0.0,0.0,0.0,0.0,0.0,0.0,0.0,0.0,0.0,0.0,0.386,0.445,9.69,0.0,0.0,0.0,0.0,0.0,0.0,0.0,0.0,0.0
1576104151851433266,39578,1576104151850829124,,0.0,0.0,0.0,0.0,0.0,0.0,0.0,0.0,0.0,0.0,0.0,0.0,0.0,0.0,-0.001,0.0,0.0,0.0,0.0,0.0,0.0,0.0,0.0,0.0,0.0,0.412,0.471,9.69,0.0,0.0,0.0,0.0,0.0,0.0,0.0,0.0,0.0
1576104151851664615,39579,1576104151851236343,,0.0,0.0,0.0,0.0,0.0,0.0,0.0,0.0,0.0,0.0,0.0,0.0,0.0,0.004,-0.001,0.0,0.0,0.0,0.0,0.0,0.0,0.0,0.0,0.0,0.0,0.481,0.452,9.69,0.0,0.0,0.0,0.0,0.0,0.0,0.0,0.0,0.0
1576104151851949950,39580,1576104151851570844,,0.0,0.0,0.0,0.0,0.0,0.0,0.0,0.0,0.0,0.0,0.0,0.0,0.0,0.0,-0.001,0.01,0.0,0.0,0.0,0.0,0.0,0.0,0.0,0.0,0.0,0.505,0.464,9.68,0.0,0.0,0.0,0.0,0.0,0.0,0.0,0.0,0.0
1576104151852675184,39581,1576104151852035284,,0.0,0.0,0.0,0.0,0.0,0.0,0.0,0.0,0.0,0.0,0.0,0.0,0.0,0.0,-0.001,0.0,0.0,0.0,0.0,0.0,0.0,0.0,0.0,0.0,0.0,0.57,0.416,9.67,0.0,0.0,0.0,0.0,0.0,0.0,0.0,0.0,0.0
1576104151852709736,39582,1576104151852393865,,0.0,0.0,0.0,0.0,0.0,0.0,0.0,0.0,0.0,0.0,0.0,0.0,0.0,-0.001,-0.001,0.01,0.0,0.0,0.0,0.0,0.0,0.0,0.0,0.0,0.0,0.635,0.382,9.67,0.0,0.0,0.0,0.0,0.0,0.0,0.0,0.0,0.0
1576104151853336598,39583,1576104151852742910,,0.0,0.0,0.0,0.0,0.0,0.0,0.0,0.0,0.0,0.0,0.0,0.0,0.0,-0.003,-0.0,0.0,0.0,0.0,0.0,0.0,0.0,0.0,0.0,0.0,0.0,0.62,0.318,9.65,0.0,0.0,0.0,0.0,0.0,0.0,0.0,0.0,0.0
1576104151853356727,39584,1576104151853071451,,0.0,0.0,0.0,0.0,0.0,0.0,0.0,0.0,0.0,0.0,0.0,0.0,0.0,-0.003,-0.0,0.0,0.0,0.0,0.0,0.0,0.0,0.0,0.0,0.0,0.0,0.625,0.32,9.7,0.0,0.0,0.0,0.0,0.0,0.0,0.0,0.0,0.0
1576104151853911365,39585,1576104151853559970,,0.0,0.0,0.0,0.0,0.0,0.0,0.0,0.0,0.0,0.0,0.0,0.0,0.0,0.0,0.001,0.0,0.0,0.0,0.0,0.0,0.0,0.0,0.0,0.0,0.0,0.661,0.291,9.6,0.0,0.0,0.0,0.0,0.0,0.0,0.0,0.0,0.0
1576104151854332940,39586,1576104151853856325,,0.0,0.0,0.0,0.0,0.0,0.0,0.0,0.0,0.0,0.0,0.0,0.0,0.0,0.003,-0.0,0.0,0.0,0.0,0.0,0.0,0.0,0.0,0.0,0.0,0.0,0.615,0.239,9.65,0.0,0.0,0.0,0.0,0.0,0.0,0.0,0.0,0.0
1576104151854437075,39587,1576104151854125022,,0.0,0.0,0.0,0.0,0.0,0.0,0.0,0.0,0.0,0.0,0.0,0.0,0.0,0.001,0.001,-0.0,0.0,0.0,0.0,0.0,0.0,0.0,0.0,0.0,0.0,0.441,0.105,9.65,0.0,0.0,0.0,0.0,0.0,0.0,0.0,0.0,0.0
1576104151855152619,39588,1576104151854454994,,0.0,0.0,0.0,0.0,0.0,0.0,0.0,0.0,0.0,0.0,0.0,0.0,0.0,-0.005,0.002,-0.0,0.0,0.0,0.0,0.0,0.0,0.0,0.0,0.0,0.0,0.474,0.181,9.65,0.0,0.0,0.0,0.0,0.0,0.0,0.0,0.0,0.0
1576104151855190161,39589,1576104151854760169,,0.0,0.0,0.0,0.0,0.0,0.0,0.0,0.0,0.0,0.0,0.0,0.0,0.0,-0.002,-0.001,-0.0,0.0,0.0,0.0,0.0,0.0,0.0,0.0,0.0,0.0,0.568,0.124,9.93,0.0,0.0,0.0,0.0,0.0,0.0,0.0,0.0,0.0
1576104151855643126,39590,1576104151855359077,,0.0,0.0,0.0,0.0,0.0,0.0,0.0,0.0,0.0,0.0,0.0,0.0,0.0,0.005,0.008,-0.0,0.0,0.0,0.0,0.0,0.0,0.0,0.0,0.0,0.0,0.436,0.241,9.57,0.0,0.0,0.0,0.0,0.0,0.0,0.0,0.0,0.0
1576104151855975772,39591,1576104151855668544,,0.0,0.0,0.0,0.0,0.0,0.0,0.0,0.0,0.0,0.0,0.0,0.0,0.0,-0.002,-0.006,-0.0,0.0,0.0,0.0,0.0,0.0,0.0,0.0,0.0,0.0,0.536,0.059,10.01,0.0,0.0,0.0,0.0,0.0,0.0,0.0,0.0,0.0
1576104151860551780,39592,1576104151859881162,,0.0,0.0,0.0,0.0,0.0,0.0,0.0,0.0,0.0,0.0,0.0,0.0,0.0,-0.001,0.01,-0.01,0.0,0.0,0.0,0.0,0.0,0.0,0.0,0.0,0.0,0.414,0.086,9.88,0.0,0.0,0.0,0.0,0.0,0.0,0.0,0.0,0.0
1576104151862501434,39593,1576104151861845970,,0.0,0.0,0.0,0.0,0.0,0.0,0.0,0.0,0.0,0.0,0.0,0.0,0.0,0.008,0.001,-0.0,0.0,0.0,0.0,0.0,0.0,0.0,0.0,0.0,0.0,0.352,0.136,9.35,0.0,0.0,0.0,0.0,0.0,0.0,0.0,0.0,0.0
1576104151868272687,39594,1576104151867550373,,0.0,0.0,0.0,0.0,0.0,0.0,0.0,0.0,0.0,0.0,0.0,0.0,0.0,0.0,0.014,-0.0,0.0,0.0,0.0,0.0,0.0,0.0,0.0,0.0,0.0,0.199,-0.034,9.52,0.0,0.0,0.0,0.0,0.0,0.0,0.0,0.0,0.0
1576104151869806994,39595,1576104151869164466,,0.0,0.0,0.0,0.0,0.0,0.0,0.0,0.0,0.0,0.0,0.0,0.0,0.0,0.0,-0.004,-0.01,0.0,0.0,0.0,0.0,0.0,0.0,0.0,0.0,0.0,0.304,0.05,9.89,0.0,0.0,0.0,0.0,0.0,0.0,0.0,0.0,0.0
1576104151875815716,39596,1576104151874916076,,0.0,0.0,0.0,0.0,0.0,0.0,0.0,0.0,0.0,0.0,0.0,0.0,0.0,0.005,0.003,-0.0,0.0,0.0,0.0,0.0,0.0,0.0,0.0,0.0,0.0,0.211,0.186,9.81,0.0,0.0,0.0,0.0,0.0,0.0,0.0,0.0,0.0
1576104151880318174,39597,1576104151879812717,,0.0,0.0,0.0,0.0,0.0,0.0,0.0,0.0,0.0,0.0,0.0,0.0,0.0,-0.001,0.001,-0.01,0.0,0.0,0.0,0.0,0.0,0.0,0.0,0.0,0.0,0.192,0.095,9.44,0.0,0.0,0.0,0.0,0.0,0.0,0.0,0.0,0.0
1576104151881829464,39598,1576104151881216287,,0.0,0.0,0.0,0.0,0.0,0.0,0.0,0.0,0.0,0.0,0.0,0.0,0.0,0.003,-0.003,-0.0,0.0,0.0,0.0,0.0,0.0,0.0,0.0,0.0,0.0,0.199,0.129,9.78,0.0,0.0,0.0,0.0,0.0,0.0,0.0,0.0,0.0
1576104151883081795,39599,1576104151882384538,,0.0,0.0,0.0,0.0,0.0,0.0,0.0,0.0,0.0,0.0,0.0,0.0,0.0,0.008,0.002,-0.0,0.0,0.0,0.0,0.0,0.0,0.0,0.0,0.0,0.0,0.074,0.318,9.88,0.0,0.0,0.0,0.0,0.0,0.0,0.0,0.0,0.0
1576104151885333153,39600,1576104151884674310,,0.0,0.0,0.0,0.0,0.0,0.0,0.0,0.0,0.0,0.0,0.0,0.0,0.0,-0.001,-0.001,-0.0,0.0,0.0,0.0,0.0,0.0,0.0,0.0,0.0,0.0,0.165,0.21,9.87,0.0,0.0,0.0,0.0,0.0,0.0,0.0,0.0,0.0
1576104151912858266,39601,1576104151912240028,,0.0,0.0,0.0,0.0,0.0,0.0,0.0,0.0,0.0,0.0,0.0,0.0,0.0,-0.001,0.006,-0.0,0.0,0.0,0.0,0.0,0.0,0.0,0.0,0.0,0.0,0.151,0.28,9.5,0.0,0.0,0.0,0.0,0.0,0.0,0.0,0.0,0.0
1576104151915793758,39602,1576104151915161848,,0.0,0.0,0.0,0.0,0.0,0.0,0.0,0.0,0.0,0.0,0.0,0.0,0.0,0.004,-0.003,-0.0,0.0,0.0,0.0,0.0,0.0,0.0,0.0,0.0,0.0,0.129,0.38,9.81,0.0,0.0,0.0,0.0,0.0,0.0,0.0,0.0,0.0
1576104151916839186,39603,1576104151915973186,,0.0,0.0,0.0,0.0,0.0,0.0,0.0,0.0,0.0,0.0,0.0,0.0,0.0,0.003,0.002,-0.0,0.0,0.0,0.0,0.0,0.0,0.0,0.0,0.0,0.0,0.134,0.409,9.55,0.0,0.0,0.0,0.0,0.0,0.0,0.0,0.0,0.0
1576104151917136303,39604,1576104151916521549,,0.0,0.0,0.0,0.0,0.0,0.0,0.0,0.0,0.0,0.0,0.0,0.0,0.0,0.003,0.001,-0.0,0.0,0.0,0.0,0.0,0.0,0.0,0.0,0.0,0.0,0.161,0.495,9.75,0.0,0.0,0.0,0.0,0.0,0.0,0.0,0.0,0.0
1576104151917664727,39605,1576104151917246103,,0.0,0.0,0.0,0.0,0.0,0.0,0.0,0.0,0.0,0.0,0.0,0.0,0.0,0.001,0.003,-0.0,0.0,0.0,0.0,0.0,0.0,0.0,0.0,0.0,0.0,0.151,0.536,9.59,0.0,0.0,0.0,0.0,0.0,0.0,0.0,0.0,0.0
1576104151918134856,39606,1576104151917787075,,0.0,0.0,0.0,0.0,0.0,0.0,0.0,0.0,0.0,0.0,0.0,0.0,0.0,-0.002,-0.003,-0.0,0.0,0.0,0.0,0.0,0.0,0.0,0.0,0.0,0.0,0.194,0.543,9.72,0.0,0.0,0.0,0.0,0.0,0.0,0.0,0.0,0.0
1576104151918663099,39607,1576104151918307065,,0.0,0.0,0.0,0.0,0.0,0.0,0.0,0.0,0.0,0.0,0.0,0.0,0.0,0.001,-0.001,-0.0,0.0,0.0,0.0,0.0,0.0,0.0,0.0,0.0,0.0,0.139,0.591,9.69,0.0,0.0,0.0,0.0,0.0,0.0,0.0,0.0,0.0
1576104151919060799,39608,1576104151918651342,,0.0,0.0,0.0,0.0,0.0,0.0,0.0,0.0,0.0,0.0,0.0,0.0,0.0,0.0,-0.0,-0.0,0.0,0.0,0.0,0.0,0.0,0.0,0.0,0.0,0.0,0.161,0.624,9.59,0.0,0.0,0.0,0.0,0.0,0.0,0.0,0.0,0.0
1576104151920665516,39609,1576104151920367240,,0.0,0.0,0.0,0.0,0.0,0.0,0.0,0.0,0.0,0.0,0.0,0.0,0.0,-0.001,-0.0,0.0,0.0,0.0,0.0,0.0,0.0,0.0,0.0,0.0,0.0,0.252,0.588,9.64,0.0,0.0,0.0,0.0,0.0,0.0,0.0,0.0,0.0
1576104151925137871,39610,1576104151924476146,,0.0,0.0,0.0,0.0,0.0,0.0,0.0,0.0,0.0,0.0,0.0,0.0,0.0,0.0,-0.001,0.0,0.0,0.0,0.0,0.0,0.0,0.0,0.0,0.0,0.0,0.271,0.584,9.65,0.0,0.0,0.0,0.0,0.0,0.0,0.0,0.0,0.0
1576104151927040087,39611,1576104151926404237,,0.0,0.0,0.0,0.0,0.0,0.0,0.0,0.0,0.0,0.0,0.0,0.0,0.0,-0.001,-0.001,0.0,0.0,0.0,0.0,0.0,0.0,0.0,0.0,0.0,0.0,0.275,0.564,9.71,0.0,0.0,0.0,0.0,0.0,0.0,0.0,0.0,0.0
1576104151931916700,39612,1576104151931239843,,0.0,0.0,0.0,0.0,0.0,0.0,0.0,0.0,0.0,0.0,0.0,0.0,0.0,-0.001,0.003,0.0,0.0,0.0,0.0,0.0,0.0,0.0,0.0,0.0,0.0,0.292,0.55,9.72,0.0,0.0,0.0,0.0,0.0,0.0,0.0,0.0,0.0
1576104151933013418,39613,1576104151932361841,,0.0,0.0,0.0,0.0,0.0,0.0,0.0,0.0,0.0,0.0,0.0,0.0,0.0,-0.003,-0.001,0.0,0.0,0.0,0.0,0.0,0.0,0.0,0.0,0.0,0.0,0.304,0.531,9.7,0.0,0.0,0.0,0.0,0.0,0.0,0.0,0.0,0.0
1576104151936414009,39614,1576104151935701847,,0.0,0.0,0.0,0.0,0.0,0.0,0.0,0.0,0.0,0.0,0.0,0.0,0.0,-0.005,0.001,0.0,0.0,0.0,0.0,0.0,0.0,0.0,0.0,0.0,0.0,0.297,0.536,9.69,0.0,0.0,0.0,0.0,0.0,0.0,0.0,0.0,0.0
1576104151939558645,39615,1576104151939059019,,0.0,0.0,0.0,0.0,0.0,0.0,0.0,0.0,0.0,0.0,0.0,0.0,0.0,-0.002,0.001,0.0,0.0,0.0,0.0,0.0,0.0,0.0,0.0,0.0,0.0,0.345,0.505,9.61,0.0,0.0,0.0,0.0,0.0,0.0,0.0,0.0,0.0
1576104151944555841,39616,1576104151944077968,,0.0,0.0,0.0,0.0,0.0,0.0,0.0,0.0,0.0,0.0,0.0,0.0,0.0,-0.002,-0.001,0.0,0.0,0.0,0.0,0.0,0.0,0.0,0.0,0.0,0.0,0.402,0.426,9.75,0.0,0.0,0.0,0.0,0.0,0.0,0.0,0.0,0.0
1576104151991176688,39617,1576104151990092992,,0.0,0.0,0.0,0.0,0.0,0.0,0.0,0.0,0.0,0.0,0.0,0.0,0.0,-0.005,-0.001,0.0,0.0,0.0,0.0,0.0,0.0,0.0,0.0,0.0,0.0,0.41,0.418,9.7,0.0,0.0,0.0,0.0,0.0,0.0,0.0,0.0,0.0
1576104151991413474,39618,1576104151990558147,,0.0,0.0,0.0,0.0,0.0,0.0,0.0,0.0,0.0,0.0,0.0,0.0,0.0,-0.003,0.001,0.0,0.0,0.0,0.0,0.0,0.0,0.0,0.0,0.0,0.0,0.441,0.356,9.64,0.0,0.0,0.0,0.0,0.0,0.0,0.0,0.0,0.0
1576104151991763854,39619,1576104151990835905,,0.0,0.0,0.0,0.0,0.0,0.0,0.0,0.0,0.0,0.0,0.0,0.0,0.0,-0.007,-0.0,0.0,0.0,0.0,0.0,0.0,0.0,0.0,0.0,0.0,0.0,0.501,0.325,9.71,0.0,0.0,0.0,0.0,0.0,0.0,0.0,0.0,0.0
1576104151991959151,39620,1576104151991443872,,0.0,0.0,0.0,0.0,0.0,0.0,0.0,0.0,0.0,0.0,0.0,0.0,0.0,-0.002,-0.004,0.0,0.0,0.0,0.0,0.0,0.0,0.0,0.0,0.0,0.0,0.498,0.294,9.73,0.0,0.0,0.0,0.0,0.0,0.0,0.0,0.0,0.0
1576104151992857810,39621,1576104151992343664,,0.0,0.0,0.0,0.0,0.0,0.0,0.0,0.0,0.0,0.0,0.0,0.0,0.0,-0.002,-0.0,0.0,0.0,0.0,0.0,0.0,0.0,0.0,0.0,0.0,0.0,0.491,0.289,9.68,0.0,0.0,0.0,0.0,0.0,0.0,0.0,0.0,0.0
1576104151993710877,39622,1576104151993080139,,0.0,0.0,0.0,0.0,0.0,0.0,0.0,0.0,0.0,0.0,0.0,0.0,0.0,-0.002,-0.0,0.0,0.0,0.0,0.0,0.0,0.0,0.0,0.0,0.0,0.0,0.608,0.203,9.88,0.0,0.0,0.0,0.0,0.0,0.0,0.0,0.0,0.0
1576104151994140164,39623,1576104151993394613,,0.0,0.0,0.0,0.0,0.0,0.0,0.0,0.0,0.0,0.0,0.0,0.0,0.0,-0.002,0.003,0.0,0.0,0.0,0.0,0.0,0.0,0.0,0.0,0.0,0.0,0.623,0.193,9.63,0.0,0.0,0.0,0.0,0.0,0.0,0.0,0.0,0.0
1576104151994157783,39624,1576104151993744850,,0.0,0.0,0.0,0.0,0.0,0.0,0.0,0.0,0.0,0.0,0.0,0.0,0.0,-0.003,-0.0,0.0,0.0,0.0,0.0,0.0,0.0,0.0,0.0,0.0,0.0,0.623,0.177,9.7,0.0,0.0,0.0,0.0,0.0,0.0,0.0,0.0,0.0
1576104151994957918,39625,1576104151994235992,,0.0,0.0,0.0,0.0,0.0,0.0,0.0,0.0,0.0,0.0,0.0,0.0,0.0,-0.002,0.001,0.0,0.0,0.0,0.0,0.0,0.0,0.0,0.0,0.0,0.0,0.637,0.157,9.69,0.0,0.0,0.0,0.0,0.0,0.0,0.0,0.0,0.0
1576104151995217504,39626,1576104151994679689,,0.0,0.0,0.0,0.0,0.0,0.0,0.0,0.0,0.0,0.0,0.0,0.0,0.0,0.001,-0.0,-0.0,0.0,0.0,0.0,0.0,0.0,0.0,0.0,0.0,0.0,0.606,0.193,9.72,0.0,0.0,0.0,0.0,0.0,0.0,0.0,0.0,0.0
1576104151995687866,39627,1576104151995329380,,0.0,0.0,0.0,0.0,0.0,0.0,0.0,0.0,0.0,0.0,0.0,0.0,0.0,0.0,-0.001,-0.0,0.0,0.0,0.0,0.0,0.0,0.0,0.0,0.0,0.0,0.572,0.198,9.69,0.0,0.0,0.0,0.0,0.0,0.0,0.0,0.0,0.0
1576104151996064301,39628,1576104151995675802,,0.0,0.0,0.0,0.0,0.0,0.0,0.0,0.0,0.0,0.0,0.0,0.0,0.0,0.004,-0.0,-0.0,0.0,0.0,0.0,0.0,0.0,0.0,0.0,0.0,0.0,0.558,0.227,9.78,0.0,0.0,0.0,0.0,0.0,0.0,0.0,0.0,0.0
1576104151996456252,39629,1576104151996090650,,0.0,0.0,0.0,0.0,0.0,0.0,0.0,0.0,0.0,0.0,0.0,0.0,0.0,0.001,0.001,-0.0,0.0,0.0,0.0,0.0,0.0,0.0,0.0,0.0,0.0,0.546,0.229,9.61,0.0,0.0,0.0,0.0,0.0,0.0,0.0,0.0,0.0
1576104152008938776,39630,1576104152008348703,,0.0,0.0,0.0,0.0,0.0,0.0,0.0,0.0,0.0,0.0,0.0,0.0,0.0,0.0,0.003,-0.0,0.0,0.0,0.0,0.0,0.0,0.0,0.0,0.0,0.0,0.551,0.28,9.69,0.0,0.0,0.0,0.0,0.0,0.0,0.0,0.0,0.0
1576104152011065472,39631,1576104152010190486,,0.0,0.0,0.0,0.0,0.0,0.0,0.0,0.0,0.0,0.0,0.0,0.0,0.0,0.001,-0.0,-0.0,0.0,0.0,0.0,0.0,0.0,0.0,0.0,0.0,0.0,0.524,0.287,9.8,0.0,0.0,0.0,0.0,0.0,0.0,0.0,0.0,0.0
1576104152011098303,39632,1576104152010479688,,0.0,0.0,0.0,0.0,0.0,0.0,0.0,0.0,0.0,0.0,0.0,0.0,0.0,0.003,0.002,-0.0,0.0,0.0,0.0,0.0,0.0,0.0,0.0,0.0,0.0,0.512,0.325,9.65,0.0,0.0,0.0,0.0,0.0,0.0,0.0,0.0,0.0
1576104152011375099,39633,1576104152010722160,,0.0,0.0,0.0,0.0,0.0,0.0,0.0,0.0,0.0,0.0,0.0,0.0,0.0,0.0,0.001,-0.0,0.0,0.0,0.0,0.0,0.0,0.0,0.0,0.0,0.0,0.489,0.313,9.7,0.0,0.0,0.0,0.0,0.0,0.0,0.0,0.0,0.0
1576104152012038224,39634,1576104152011615037,,0.0,0.0,0.0,0.0,0.0,0.0,0.0,0.0,0.0,0.0,0.0,0.0,0.0,0.001,0.002,-0.01,0.0,0.0,0.0,0.0,0.0,0.0,0.0,0.0,0.0,0.369,0.38,9.64,0.0,0.0,0.0,0.0,0.0,0.0,0.0,0.0,0.0
1576104152014149199,39635,1576104152013770341,,0.0,0.0,0.0,0.0,0.0,0.0,0.0,0.0,0.0,0.0,0.0,0.0,0.0,0.003,0.002,-0.0,0.0,0.0,0.0,0.0,0.0,0.0,0.0,0.0,0.0,0.354,0.469,9.67,0.0,0.0,0.0,0.0,0.0,0.0,0.0,0.0,0.0
1576104152014911453,39636,1576104152014125108,,0.0,0.0,0.0,0.0,0.0,0.0,0.0,0.0,0.0,0.0,0.0,0.0,0.0,0.003,0.002,-0.0,0.0,0.0,0.0,0.0,0.0,0.0,0.0,0.0,0.0,0.283,0.495,9.75,0.0,0.0,0.0,0.0,0.0,0.0,0.0,0.0,0.0
1576104152014951276,39637,1576104152014383792,,0.0,0.0,0.0,0.0,0.0,0.0,0.0,0.0,0.0,0.0,0.0,0.0,0.0,0.001,0.001,-0.01,0.0,0.0,0.0,0.0,0.0,0.0,0.0,0.0,0.0,0.256,0.526,9.73,0.0,0.0,0.0,0.0,0.0,0.0,0.0,0.0,0.0
1576104152015115505,39638,1576104152014627218,,0.0,0.0,0.0,0.0,0.0,0.0,0.0,0.0,0.0,0.0,0.0,0.0,0.0,0.0,0.005,-0.0,0.0,0.0,0.0,0.0,0.0,0.0,0.0,0.0,0.0,0.218,0.596,9.66,0.0,0.0,0.0,0.0,0.0,0.0,0.0,0.0,0.0
1576104152017123952,39639,1576104152016631841,,0.0,0.0,0.0,0.0,0.0,0.0,0.0,0.0,0.0,0.0,0.0,0.0,0.0,0.003,0.002,-0.0,0.0,0.0,0.0,0.0,0.0,0.0,0.0,0.0,0.0,0.127,0.665,9.69,0.0,0.0,0.0,0.0,0.0,0.0,0.0,0.0,0.0
1576104152023891815,39640,1576104152023242950,,0.0,0.0,0.0,0.0,0.0,0.0,0.0,0.0,0.0,0.0,0.0,0.0,0.0,0.0,0.003,-0.0,0.0,0.0,0.0,0.0,0.0,0.0,0.0,0.0,0.0,0.091,0.66,9.64,0.0,0.0,0.0,0.0,0.0,0.0,0.0,0.0,0.0
1576104152024584211,39641,1576104152024000883,,0.0,0.0,0.0,0.0,0.0,0.0,0.0,0.0,0.0,0.0,0.0,0.0,0.0,0.001,0.001,-0.0,0.0,0.0,0.0,0.0,0.0,0.0,0.0,0.0,0.0,0.065,0.696,9.64,0.0,0.0,0.0,0.0,0.0,0.0,0.0,0.0,0.0
1576104152029466289,39642,1576104152028946161,,0.0,0.0,0.0,0.0,0.0,0.0,0.0,0.0,0.0,0.0,0.0,0.0,0.0,0.001,-0.0,0.0,0.0,0.0,0.0,0.0,0.0,0.0,0.0,0.0,0.0,0.105,0.679,9.66,0.0,0.0,0.0,0.0,0.0,0.0,0.0,0.0,0.0
1576104152032008200,39643,1576104152031330823,,0.0,0.0,0.0,0.0,0.0,0.0,0.0,0.0,0.0,0.0,0.0,0.0,0.0,-0.001,-0.001,0.0,0.0,0.0,0.0,0.0,0.0,0.0,0.0,0.0,0.0,0.134,0.663,9.73,0.0,0.0,0.0,0.0,0.0,0.0,0.0,0.0,0.0
1576104152032873332,39644,1576104152032380342,,0.0,0.0,0.0,0.0,0.0,0.0,0.0,0.0,0.0,0.0,0.0,0.0,0.0,-0.001,0.007,0.0,0.0,0.0,0.0,0.0,0.0,0.0,0.0,0.0,0.0,0.098,0.77,9.38,0.0,0.0,0.0,0.0,0.0,0.0,0.0,0.0,0.0
1576104152035964221,39645,1576104152035506248,,0.0,0.0,0.0,0.0,0.0,0.0,0.0,0.0,0.0,0.0,0.0,0.0,0.0,-0.001,-0.008,0.0,0.0,0.0,0.0,0.0,0.0,0.0,0.0,0.0,0.0,0.137,0.596,9.9,0.0,0.0,0.0,0.0,0.0,0.0,0.0,0.0,0.0
1576104152039843989,39646,1576104152039173603,,0.0,0.0,0.0,0.0,0.0,0.0,0.0,0.0,0.0,0.0,0.0,0.0,0.0,0.005,-0.001,0.01,0.0,0.0,0.0,0.0,0.0,0.0,0.0,0.0,0.0,0.182,0.636,9.78,0.0,0.0,0.0,0.0,0.0,0.0,0.0,0.0,0.0
1576104152041158372,39647,1576104152040483236,,0.0,0.0,0.0,0.0,0.0,0.0,0.0,0.0,0.0,0.0,0.0,0.0,0.0,0.0,0.002,0.0,0.0,0.0,0.0,0.0,0.0,0.0,0.0,0.0,0.0,0.139,0.639,9.66,0.0,0.0,0.0,0.0,0.0,0.0,0.0,0.0,0.0
1576104152045181722,39648,1576104152044522285,,0.0,0.0,0.0,0.0,0.0,0.0,0.0,0.0,0.0,0.0,0.0,0.0,0.0,-0.003,-0.003,0.0,0.0,0.0,0.0,0.0,0.0,0.0,0.0,0.0,0.0,0.208,0.555,9.61,0.0,0.0,0.0,0.0,0.0,0.0,0.0,0.0,0.0
1576104152047395716,39649,1576104152046756982,,0.0,0.0,0.0,0.0,0.0,0.0,0.0,0.0,0.0,0.0,0.0,0.0,0.0,-0.001,-0.001,0.0,0.0,0.0,0.0,0.0,0.0,0.0,0.0,0.0,0.0,0.266,0.493,9.93,0.0,0.0,0.0,0.0,0.0,0.0,0.0,0.0,0.0
1576104152051308407,39650,1576104152050552845,,0.0,0.0,0.0,0.0,0.0,0.0,0.0,0.0,0.0,0.0,0.0,0.0,0.0,-0.005,0.003,0.01,0.0,0.0,0.0,0.0,0.0,0.0,0.0,0.0,0.0,0.297,0.543,9.6,0.0,0.0,0.0,0.0,0.0,0.0,0.0,0.0,0.0
1576104152053259566,39651,1576104152052602767,,0.0,0.0,0.0,0.0,0.0,0.0,0.0,0.0,0.0,0.0,0.0,0.0,0.0,-0.003,-0.001,0.0,0.0,0.0,0.0,0.0,0.0,0.0,0.0,0.0,0.0,0.304,0.44,9.7,0.0,0.0,0.0,0.0,0.0,0.0,0.0,0.0,0.0
1576104152059301419,39652,1576104152058365106,,0.0,0.0,0.0,0.0,0.0,0.0,0.0,0.0,0.0,0.0,0.0,0.0,0.0,-0.001,-0.003,0.02,0.0,0.0,0.0,0.0,0.0,0.0,0.0,0.0,0.0,0.374,0.38,9.55,0.0,0.0,0.0,0.0,0.0,0.0,0.0,0.0,0.0
1576104152060060998,39653,1576104152059344530,,0.0,0.0,0.0,0.0,0.0,0.0,0.0,0.0,0.0,0.0,0.0,0.0,0.0,-0.002,0.002,0.0,0.0,0.0,0.0,0.0,0.0,0.0,0.0,0.0,0.0,0.405,0.38,9.65,0.0,0.0,0.0,0.0,0.0,0.0,0.0,0.0,0.0
1576104152062264207,39654,1576104152061594009,,0.0,0.0,0.0,0.0,0.0,0.0,0.0,0.0,0.0,0.0,0.0,0.0,0.0,-0.003,-0.0,0.0,0.0,0.0,0.0,0.0,0.0,0.0,0.0,0.0,0.0,0.436,0.311,9.7,0.0,0.0,0.0,0.0,0.0,0.0,0.0,0.0,0.0
1576104152065595841,39655,1576104152064972639,,0.0,0.0,0.0,0.0,0.0,0.0,0.0,0.0,0.0,0.0,0.0,0.0,0.0,-0.002,-0.001,0.0,0.0,0.0,0.0,0.0,0.0,0.0,0.0,0.0,0.0,0.479,0.289,9.69,0.0,0.0,0.0,0.0,0.0,0.0,0.0,0.0,0.0
1576104152067846817,39656,1576104152067192554,,0.0,0.0,0.0,0.0,0.0,0.0,0.0,0.0,0.0,0.0,0.0,0.0,0.0,-0.002,-0.001,0.0,0.0,0.0,0.0,0.0,0.0,0.0,0.0,0.0,0.0,0.517,0.256,9.63,0.0,0.0,0.0,0.0,0.0,0.0,0.0,0.0,0.0
1576104152072249086,39657,1576104152071650743,,0.0,0.0,0.0,0.0,0.0,0.0,0.0,0.0,0.0,0.0,0.0,0.0,0.0,-0.001,-0.0,0.01,0.0,0.0,0.0,0.0,0.0,0.0,0.0,0.0,0.0,0.544,0.227,9.65,0.0,0.0,0.0,0.0,0.0,0.0,0.0,0.0,0.0
1576104152072647645,39658,1576104152072191476,,0.0,0.0,0.0,0.0,0.0,0.0,0.0,0.0,0.0,0.0,0.0,0.0,0.0,-0.001,-0.001,0.0,0.0,0.0,0.0,0.0,0.0,0.0,0.0,0.0,0.0,0.568,0.196,9.69,0.0,0.0,0.0,0.0,0.0,0.0,0.0,0.0,0.0
1576104152077024236,39659,1576104152076353549,,0.0,0.0,0.0,0.0,0.0,0.0,0.0,0.0,0.0,0.0,0.0,0.0,0.0,-0.001,0.001,0.0,0.0,0.0,0.0,0.0,0.0,0.0,0.0,0.0,0.0,0.596,0.169,9.63,0.0,0.0,0.0,0.0,0.0,0.0,0.0,0.0,0.0
1576104152081637660,39660,1576104152080844879,,0.0,0.0,0.0,0.0,0.0,0.0,0.0,0.0,0.0,0.0,0.0,0.0,0.0,0.003,-0.001,-0.0,0.0,0.0,0.0,0.0,0.0,0.0,0.0,0.0,0.0,0.611,0.21,9.76,0.0,0.0,0.0,0.0,0.0,0.0,0.0,0.0,0.0
1576104152084873131,39661,1576104152084183216,,0.0,0.0,0.0,0.0,0.0,0.0,0.0,0.0,0.0,0.0,0.0,0.0,0.0,0.003,-0.0,-0.0,0.0,0.0,0.0,0.0,0.0,0.0,0.0,0.0,0.0,0.601,0.217,9.65,0.0,0.0,0.0,0.0,0.0,0.0,0.0,0.0,0.0
1576104152151760350,39662,1576104152150105237,,0.0,0.0,0.0,0.0,0.0,0.0,0.0,0.0,0.0,0.0,0.0,0.0,0.0,0.001,-0.003,-0.0,0.0,0.0,0.0,0.0,0.0,0.0,0.0,0.0,0.0,0.587,0.227,9.71,0.0,0.0,0.0,0.0,0.0,0.0,0.0,0.0,0.0
1576104152151812672,39663,1576104152150642395,,0.0,0.0,0.0,0.0,0.0,0.0,0.0,0.0,0.0,0.0,0.0,0.0,0.0,-0.002,-0.0,-0.01,0.0,0.0,0.0,0.0,0.0,0.0,0.0,0.0,0.0,0.575,0.246,9.72,0.0,0.0,0.0,0.0,0.0,0.0,0.0,0.0,0.0
1576104152151959945,39664,1576104152151073455,,0.0,0.0,0.0,0.0,0.0,0.0,0.0,0.0,0.0,0.0,0.0,0.0,0.0,0.0,0.001,-0.0,0.0,0.0,0.0,0.0,0.0,0.0,0.0,0.0,0.0,0.556,0.28,9.66,0.0,0.0,0.0,0.0,0.0,0.0,0.0,0.0,0.0
1576104152152283890,39665,1576104152151387453,,0.0,0.0,0.0,0.0,0.0,0.0,0.0,0.0,0.0,0.0,0.0,0.0,0.0,-0.002,-0.001,-0.0,0.0,0.0,0.0,0.0,0.0,0.0,0.0,0.0,0.0,0.524,0.306,9.71,0.0,0.0,0.0,0.0,0.0,0.0,0.0,0.0,0.0
1576104152152315156,39666,1576104152151988744,,0.0,0.0,0.0,0.0,0.0,0.0,0.0,0.0,0.0,0.0,0.0,0.0,0.0,-0.002,0.001,-0.0,0.0,0.0,0.0,0.0,0.0,0.0,0.0,0.0,0.0,0.462,0.313,9.7,0.0,0.0,0.0,0.0,0.0,0.0,0.0,0.0,0.0
1576104152153193050,39667,1576104152152400016,,0.0,0.0,0.0,0.0,0.0,0.0,0.0,0.0,0.0,0.0,0.0,0.0,0.0,0.0,0.002,-0.02,0.0,0.0,0.0,0.0,0.0,0.0,0.0,0.0,0.0,0.405,0.387,9.68,0.0,0.0,0.0,0.0,0.0,0.0,0.0,0.0,0.0
1576104152153210198,39668,1576104152152703285,,0.0,0.0,0.0,0.0,0.0,0.0,0.0,0.0,0.0,0.0,0.0,0.0,0.0,0.001,0.002,-0.0,0.0,0.0,0.0,0.0,0.0,0.0,0.0,0.0,0.0,0.35,0.394,9.68,0.0,0.0,0.0,0.0,0.0,0.0,0.0,0.0,0.0
1576104152153401576,39669,1576104152153034210,,0.0,0.0,0.0,0.0,0.0,0.0,0.0,0.0,0.0,0.0,0.0,0.0,0.0,0.0,0.001,-0.0,0.0,0.0,0.0,0.0,0.0,0.0,0.0,0.0,0.0,0.343,0.428,9.63,0.0,0.0,0.0,0.0,0.0,0.0,0.0,0.0,0.0
1576104152153847454,39670,1576104152153478860,,0.0,0.0,0.0,0.0,0.0,0.0,0.0,0.0,0.0,0.0,0.0,0.0,0.0,0.001,0.001,-0.0,0.0,0.0,0.0,0.0,0.0,0.0,0.0,0.0,0.0,0.292,0.461,9.66,0.0,0.0,0.0,0.0,0.0,0.0,0.0,0.0,0.0
1576104152154102708,39671,1576104152153813600,,0.0,0.0,0.0,0.0,0.0,0.0,0.0,0.0,0.0,0.0,0.0,0.0,0.0,0.003,0.001,-0.03,0.0,0.0,0.0,0.0,0.0,0.0,0.0,0.0,0.0,0.216,0.473,9.68,0.0,0.0,0.0,0.0,0.0,0.0,0.0,0.0,0.0
1576104152154370423,39672,1576104152154124975,,0.0,0.0,0.0,0.0,0.0,0.0,0.0,0.0,0.0,0.0,0.0,0.0,0.0,0.001,-0.001,-0.0,0.0,0.0,0.0,0.0,0.0,0.0,0.0,0.0,0.0,0.153,0.526,9.7,0.0,0.0,0.0,0.0,0.0,0.0,0.0,0.0,0.0
1576104152154673188,39673,1576104152154433965,,0.0,0.0,0.0,0.0,0.0,0.0,0.0,0.0,0.0,0.0,0.0,0.0,0.0,0.0,-0.001,-0.0,0.0,0.0,0.0,0.0,0.0,0.0,0.0,0.0,0.0,0.127,0.543,9.76,0.0,0.0,0.0,0.0,0.0,0.0,0.0,0.0,0.0
1576104152155048144,39674,1576104152154742479,,0.0,0.0,0.0,0.0,0.0,0.0,0.0,0.0,0.0,0.0,0.0,0.0,0.0,-0.002,0.005,-0.0,0.0,0.0,0.0,0.0,0.0,0.0,0.0,0.0,0.0,0.05,0.598,9.69,0.0,0.0,0.0,0.0,0.0,0.0,0.0,0.0,0.0
1576104152155724825,39675,1576104152155217885,,0.0,0.0,0.0,0.0,0.0,0.0,0.0,0.0,0.0,0.0,0.0,0.0,0.0,-0.001,0.001,-0.02,0.0,0.0,0.0,0.0,0.0,0.0,0.0,0.0,0.0,-0.072,0.667,9.67,0.0,0.0,0.0,0.0,0.0,0.0,0.0,0.0,0.0
1576104152156171507,39676,1576104152155643939,,0.0,0.0,0.0,0.0,0.0,0.0,0.0,0.0,0.0,0.0,0.0,0.0,0.0,0.0,-0.0,-0.0,0.0,0.0,0.0,0.0,0.0,0.0,0.0,0.0,0.0,-0.117,0.708,9.68,0.0,0.0,0.0,0.0,0.0,0.0,0.0,0.0,0.0
1576104152157063707,39677,1576104152156091928,,0.0,0.0,0.0,0.0,0.0,0.0,0.0,0.0,0.0,0.0,0.0,0.0,0.0,-0.001,0.001,-0.01,0.0,0.0,0.0,0.0,0.0,0.0,0.0,0.0,0.0,-0.12,0.718,9.65,0.0,0.0,0.0,0.0,0.0,0.0,0.0,0.0,0.0
1576104152157242459,39678,1576104152156520605,,0.0,0.0,0.0,0.0,0.0,0.0,0.0,0.0,0.0,0.0,0.0,0.0,0.0,-0.003,-0.003,-0.0,0.0,0.0,0.0,0.0,0.0,0.0,0.0,0.0,0.0,-0.074,0.698,9.69,0.0,0.0,0.0,0.0,0.0,0.0,0.0,0.0,0.0
1576104152157401517,39679,1576104152156763553,,0.0,0.0,0.0,0.0,0.0,0.0,0.0,0.0,0.0,0.0,0.0,0.0,0.0,-0.002,-0.001,-0.0,0.0,0.0,0.0,0.0,0.0,0.0,0.0,0.0,0.0,-0.06,0.651,9.67,0.0,0.0,0.0,0.0,0.0,0.0,0.0,0.0,0.0
1576104152157608068,39680,1576104152157061815,,0.0,0.0,0.0,0.0,0.0,0.0,0.0,0.0,0.0,0.0,0.0,0.0,0.0,-0.001,-0.003,0.0,0.0,0.0,0.0,0.0,0.0,0.0,0.0,0.0,0.0,-0.033,0.617,9.68,0.0,0.0,0.0,0.0,0.0,0.0,0.0,0.0,0.0
1576104152158034198,39681,1576104152157519578,,0.0,0.0,0.0,0.0,0.0,0.0,0.0,0.0,0.0,0.0,0.0,0.0,0.0,-0.003,-0.003,0.0,0.0,0.0,0.0,0.0,0.0,0.0,0.0,0.0,0.0,0.017,0.55,9.68,0.0,0.0,0.0,0.0,0.0,0.0,0.0,0.0,0.0
1576104152158535228,39682,1576104152158110380,,0.0,0.0,0.0,0.0,0.0,0.0,0.0,0.0,0.0,0.0,0.0,0.0,0.0,-0.002,-0.003,0.0,0.0,0.0,0.0,0.0,0.0,0.0,0.0,0.0,0.0,0.12,0.488,9.68,0.0,0.0,0.0,0.0,0.0,0.0,0.0,0.0,0.0
1576104152159264692,39683,1576104152158478498,,0.0,0.0,0.0,0.0,0.0,0.0,0.0,0.0,0.0,0.0,0.0,0.0,0.0,-0.001,-0.003,0.0,0.0,0.0,0.0,0.0,0.0,0.0,0.0,0.0,0.0,0.127,0.469,9.7,0.0,0.0,0.0,0.0,0.0,0.0,0.0,0.0,0.0
1576104152159526498,39684,1576104152158749580,,0.0,0.0,0.0,0.0,0.0,0.0,0.0,0.0,0.0,0.0,0.0,0.0,0.0,-0.002,-0.0,0.0,0.0,0.0,0.0,0.0,0.0,0.0,0.0,0.0,0.0,0.153,0.416,9.7,0.0,0.0,0.0,0.0,0.0,0.0,0.0,0.0,0.0
1576104152159738587,39685,1576104152159121751,,0.0,0.0,0.0,0.0,0.0,0.0,0.0,0.0,0.0,0.0,0.0,0.0,0.0,-0.001,-0.0,0.01,0.0,0.0,0.0,0.0,0.0,0.0,0.0,0.0,0.0,0.18,0.392,9.68,0.0,0.0,0.0,0.0,0.0,0.0,0.0,0.0,0.0
1576104152159782183,39686,1576104152159439086,,0.0,0.0,0.0,0.0,0.0,0.0,0.0,0.0,0.0,0.0,0.0,0.0,0.0,-0.003,-0.0,0.0,0.0,0.0,0.0,0.0,0.0,0.0,0.0,0.0,0.0,0.213,0.363,9.67,0.0,0.0,0.0,0.0,0.0,0.0,0.0,0.0,0.0
1576104152160153851,39687,1576104152159779310,,0.0,0.0,0.0,0.0,0.0,0.0,0.0,0.0,0.0,0.0,0.0,0.0,0.0,-0.005,-0.003,0.0,0.0,0.0,0.0,0.0,0.0,0.0,0.0,0.0,0.0,0.232,0.323,9.72,0.0,0.0,0.0,0.0,0.0,0.0,0.0,0.0,0.0
1576104152160400511,39688,1576104152160141229,,0.0,0.0,0.0,0.0,0.0,0.0,0.0,0.0,0.0,0.0,0.0,0.0,0.0,-0.002,-0.003,0.02,0.0,0.0,0.0,0.0,0.0,0.0,0.0,0.0,0.0,0.275,0.306,9.7,0.0,0.0,0.0,0.0,0.0,0.0,0.0,0.0,0.0
1576104152161995195,39689,1576104152161521434,,0.0,0.0,0.0,0.0,0.0,0.0,0.0,0.0,0.0,0.0,0.0,0.0,0.0,-0.001,-0.004,0.0,0.0,0.0,0.0,0.0,0.0,0.0,0.0,0.0,0.0,0.292,0.289,9.69,0.0,0.0,0.0,0.0,0.0,0.0,0.0,0.0,0.0
1576104152163117202,39690,1576104152162708044,,0.0,0.0,0.0,0.0,0.0,0.0,0.0,0.0,0.0,0.0,0.0,0.0,0.0,-0.002,-0.003,0.0,0.0,0.0,0.0,0.0,0.0,0.0,0.0,0.0,0.0,0.338,0.287,9.68,0.0,0.0,0.0,0.0,0.0,0.0,0.0,0.0,0.0
1576104152166478180,39691,1576104152166045427,,0.0,0.0,0.0,0.0,0.0,0.0,0.0,0.0,0.0,0.0,0.0,0.0,0.0,-0.002,-0.003,0.0,0.0,0.0,0.0,0.0,0.0,0.0,0.0,0.0,0.0,0.39,0.263,9.66,0.0,0.0,0.0,0.0,0.0,0.0,0.0,0.0,0.0
1576104152171272133,39692,1576104152170538187,,0.0,0.0,0.0,0.0,0.0,0.0,0.0,0.0,0.0,0.0,0.0,0.0,0.0,-0.003,-0.0,0.02,0.0,0.0,0.0,0.0,0.0,0.0,0.0,0.0,0.0,0.512,0.205,9.7,0.0,0.0,0.0,0.0,0.0,0.0,0.0,0.0,0.0
1576104152173322943,39693,1576104152172759056,,0.0,0.0,0.0,0.0,0.0,0.0,0.0,0.0,0.0,0.0,0.0,0.0,0.0,-0.002,-0.003,0.0,0.0,0.0,0.0,0.0,0.0,0.0,0.0,0.0,0.0,0.601,0.189,9.7,0.0,0.0,0.0,0.0,0.0,0.0,0.0,0.0,0.0
1576104152179160280,39694,1576104152178456306,,0.0,0.0,0.0,0.0,0.0,0.0,0.0,0.0,0.0,0.0,0.0,0.0,0.0,-0.001,-0.004,0.01,0.0,0.0,0.0,0.0,0.0,0.0,0.0,0.0,0.0,0.702,0.124,9.69,0.0,0.0,0.0,0.0,0.0,0.0,0.0,0.0,0.0
1576104152180335628,39695,1576104152179656267,,0.0,0.0,0.0,0.0,0.0,0.0,0.0,0.0,0.0,0.0,0.0,0.0,0.0,-0.001,-0.0,0.0,0.0,0.0,0.0,0.0,0.0,0.0,0.0,0.0,0.0,0.745,0.122,9.66,0.0,0.0,0.0,0.0,0.0,0.0,0.0,0.0,0.0
1576104152182584166,39696,1576104152181826353,,0.0,0.0,0.0,0.0,0.0,0.0,0.0,0.0,0.0,0.0,0.0,0.0,0.0,0.001,-0.001,0.0,0.0,0.0,0.0,0.0,0.0,0.0,0.0,0.0,0.0,0.747,0.153,9.7,0.0,0.0,0.0,0.0,0.0,0.0,0.0,0.0,0.0
1576104152185682529,39697,1576104152185140848,,0.0,0.0,0.0,0.0,0.0,0.0,0.0,0.0,0.0,0.0,0.0,0.0,0.0,0.003,-0.003,0.0,0.0,0.0,0.0,0.0,0.0,0.0,0.0,0.0,0.0,0.754,0.133,9.7,0.0,0.0,0.0,0.0,0.0,0.0,0.0,0.0,0.0
1576104152212571044,39698,1576104152211340904,,0.0,0.0,0.0,0.0,0.0,0.0,0.0,0.0,0.0,0.0,0.0,0.0,0.0,0.0,-0.001,0.0,0.0,0.0,0.0,0.0,0.0,0.0,0.0,0.0,0.0,0.723,0.143,9.7,0.0,0.0,0.0,0.0,0.0,0.0,0.0,0.0,0.0
1576104152212606733,39699,1576104152211921453,,0.0,0.0,0.0,0.0,0.0,0.0,0.0,0.0,0.0,0.0,0.0,0.0,0.0,-0.001,0.002,0.0,0.0,0.0,0.0,0.0,0.0,0.0,0.0,0.0,0.0,0.711,0.186,9.7,0.0,0.0,0.0,0.0,0.0,0.0,0.0,0.0,0.0
1576104152215365097,39700,1576104152214819669,,0.0,0.0,0.0,0.0,0.0,0.0,0.0,0.0,0.0,0.0,0.0,0.0,0.0,-0.002,0.001,-0.0,0.0,0.0,0.0,0.0,0.0,0.0,0.0,0.0,0.0,0.69,0.239,9.68,0.0,0.0,0.0,0.0,0.0,0.0,0.0,0.0,0.0
1576104152215879622,39701,1576104152215484142,,0.0,0.0,0.0,0.0,0.0,0.0,0.0,0.0,0.0,0.0,0.0,0.0,0.0,-0.002,0.001,-0.0,0.0,0.0,0.0,0.0,0.0,0.0,0.0,0.0,0.0,0.639,0.294,9.67,0.0,0.0,0.0,0.0,0.0,0.0,0.0,0.0,0.0
1576104152216638029,39702,1576104152215952634,,0.0,0.0,0.0,0.0,0.0,0.0,0.0,0.0,0.0,0.0,0.0,0.0,0.0,-0.001,0.001,-0.0,0.0,0.0,0.0,0.0,0.0,0.0,0.0,0.0,0.0,0.623,0.303,9.67,0.0,0.0,0.0,0.0,0.0,0.0,0.0,0.0,0.0
1576104152217039900,39703,1576104152216389656,,0.0,0.0,0.0,0.0,0.0,0.0,0.0,0.0,0.0,0.0,0.0,0.0,0.0,0.0,0.002,-0.0,0.0,0.0,0.0,0.0,0.0,0.0,0.0,0.0,0.0,0.553,0.327,9.67,0.0,0.0,0.0,0.0,0.0,0.0,0.0,0.0,0.0
1576104152217531730,39704,1576104152216997385,,0.0,0.0,0.0,0.0,0.0,0.0,0.0,0.0,0.0,0.0,0.0,0.0,0.0,0.0,0.002,-0.0,0.0,0.0,0.0,0.0,0.0,0.0,0.0,0.0,0.0,0.529,0.349,9.68,0.0,0.0,0.0,0.0,0.0,0.0,0.0,0.0,0.0
1576104152217893631,39705,1576104152217431783,,0.0,0.0,0.0,0.0,0.0,0.0,0.0,0.0,0.0,0.0,0.0,0.0,0.0,-0.001,0.002,-0.0,0.0,0.0,0.0,0.0,0.0,0.0,0.0,0.0,0.0,0.522,0.335,9.65,0.0,0.0,0.0,0.0,0.0,0.0,0.0,0.0,0.0
1576104152219844598,39706,1576104152219255924,,0.0,0.0,0.0,0.0,0.0,0.0,0.0,0.0,0.0,0.0,0.0,0.0,0.0,0.0,0.001,-0.0,0.0,0.0,0.0,0.0,0.0,0.0,0.0,0.0,0.0,0.501,0.332,9.68,0.0,0.0,0.0,0.0,0.0,0.0,0.0,0.0,0.0
1576104152221032447,39707,1576104152220437765,,0.0,0.0,0.0,0.0,0.0,0.0,0.0,0.0,0.0,0.0,0.0,0.0,0.0,-0.002,0.002,-0.0,0.0,0.0,0.0,0.0,0.0,0.0,0.0,0.0,0.0,0.465,0.33,9.71,0.0,0.0,0.0,0.0,0.0,0.0,0.0,0.0,0.0
1576104152224102054,39708,1576104152223646640,,0.0,0.0,0.0,0.0,0.0,0.0,0.0,0.0,0.0,0.0,0.0,0.0,0.0,-0.001,0.001,-0.0,0.0,0.0,0.0,0.0,0.0,0.0,0.0,0.0,0.0,0.443,0.339,9.7,0.0,0.0,0.0,0.0,0.0,0.0,0.0,0.0,0.0
1576104152228948733,39709,1576104152228121995,,0.0,0.0,0.0,0.0,0.0,0.0,0.0,0.0,0.0,0.0,0.0,0.0,0.0,0.0,0.001,-0.01,0.0,0.0,0.0,0.0,0.0,0.0,0.0,0.0,0.0,0.366,0.356,9.69,0.0,0.0,0.0,0.0,0.0,0.0,0.0,0.0,0.0
1576104152229827876,39710,1576104152229125022,,0.0,0.0,0.0,0.0,0.0,0.0,0.0,0.0,0.0,0.0,0.0,0.0,0.0,-0.002,0.002,-0.0,0.0,0.0,0.0,0.0,0.0,0.0,0.0,0.0,0.0,0.347,0.382,9.66,0.0,0.0,0.0,0.0,0.0,0.0,0.0,0.0,0.0
1576104152231914016,39711,1576104152231283903,,0.0,0.0,0.0,0.0,0.0,0.0,0.0,0.0,0.0,0.0,0.0,0.0,0.0,-0.001,0.002,-0.0,0.0,0.0,0.0,0.0,0.0,0.0,0.0,0.0,0.0,0.338,0.375,9.69,0.0,0.0,0.0,0.0,0.0,0.0,0.0,0.0,0.0
1576104152235156235,39712,1576104152234582185,,0.0,0.0,0.0,0.0,0.0,0.0,0.0,0.0,0.0,0.0,0.0,0.0,0.0,0.0,0.001,-0.0,0.0,0.0,0.0,0.0,0.0,0.0,0.0,0.0,0.0,0.302,0.37,9.7,0.0,0.0,0.0,0.0,0.0,0.0,0.0,0.0,0.0
1576104152239873533,39713,1576104152239169597,,0.0,0.0,0.0,0.0,0.0,0.0,0.0,0.0,0.0,0.0,0.0,0.0,0.0,0.001,0.001,-0.0,0.0,0.0,0.0,0.0,0.0,0.0,0.0,0.0,0.0,0.268,0.38,9.67,0.0,0.0,0.0,0.0,0.0,0.0,0.0,0.0,0.0
1576104152240146474,39714,1576104152239556312,,0.0,0.0,0.0,0.0,0.0,0.0,0.0,0.0,0.0,0.0,0.0,0.0,0.0,-0.001,0.002,-0.0,0.0,0.0,0.0,0.0,0.0,0.0,0.0,0.0,0.0,0.235,0.404,9.67,0.0,0.0,0.0,0.0,0.0,0.0,0.0,0.0,0.0
1576104152242073731,39715,1576104152241401433,,0.0,0.0,0.0,0.0,0.0,0.0,0.0,0.0,0.0,0.0,0.0,0.0,0.0,0.001,0.001,-0.0,0.0,0.0,0.0,0.0,0.0,0.0,0.0,0.0,0.0,0.235,0.406,9.69,0.0,0.0,0.0,0.0,0.0,0.0,0.0,0.0,0.0
1576104152245276560,39716,1576104152244628429,,0.0,0.0,0.0,0.0,0.0,0.0,0.0,0.0,0.0,0.0,0.0,0.0,0.0,0.001,0.001,0.0,0.0,0.0,0.0,0.0,0.0,0.0,0.0,0.0,0.0,0.213,0.414,9.68,0.0,0.0,0.0,0.0,0.0,0.0,0.0,0.0,0.0
1576104152299061735,39717,1576104152297751665,,0.0,0.0,0.0,0.0,0.0,0.0,0.0,0.0,0.0,0.0,0.0,0.0,0.0,0.0,0.001,0.0,0.0,0.0,0.0,0.0,0.0,0.0,0.0,0.0,0.0,0.223,0.411,9.67,0.0,0.0,0.0,0.0,0.0,0.0,0.0,0.0,0.0
1576104152299108026,39718,1576104152298352241,,0.0,0.0,0.0,0.0,0.0,0.0,0.0,0.0,0.0,0.0,0.0,0.0,0.0,0.0,-0.0,0.0,0.0,0.0,0.0,0.0,0.0,0.0,0.0,0.0,0.0,0.259,0.402,9.69,0.0,0.0,0.0,0.0,0.0,0.0,0.0,0.0,0.0
1576104152299285189,39719,1576104152298644781,,0.0,0.0,0.0,0.0,0.0,0.0,0.0,0.0,0.0,0.0,0.0,0.0,0.0,0.0,0.001,0.0,0.0,0.0,0.0,0.0,0.0,0.0,0.0,0.0,0.0,0.261,0.404,9.69,0.0,0.0,0.0,0.0,0.0,0.0,0.0,0.0,0.0
1576104152299875685,39720,1576104152299493789,,0.0,0.0,0.0,0.0,0.0,0.0,0.0,0.0,0.0,0.0,0.0,0.0,0.0,0.0,0.001,0.0,0.0,0.0,0.0,0.0,0.0,0.0,0.0,0.0,0.0,0.285,0.392,9.7,0.0,0.0,0.0,0.0,0.0,0.0,0.0,0.0,0.0
1576104152301080740,39721,1576104152300201892,,0.0,0.0,0.0,0.0,0.0,0.0,0.0,0.0,0.0,0.0,0.0,0.0,0.0,0.001,0.001,0.0,0.0,0.0,0.0,0.0,0.0,0.0,0.0,0.0,0.0,0.299,0.378,9.68,0.0,0.0,0.0,0.0,0.0,0.0,0.0,0.0,0.0
1576104152301119130,39722,1576104152300547361,,0.0,0.0,0.0,0.0,0.0,0.0,0.0,0.0,0.0,0.0,0.0,0.0,0.0,0.001,0.001,0.0,0.0,0.0,0.0,0.0,0.0,0.0,0.0,0.0,0.0,0.285,0.378,9.69,0.0,0.0,0.0,0.0,0.0,0.0,0.0,0.0,0.0
1576104152301764450,39723,1576104152301135063,,0.0,0.0,0.0,0.0,0.0,0.0,0.0,0.0,0.0,0.0,0.0,0.0,0.0,0.001,0.002,0.0,0.0,0.0,0.0,0.0,0.0,0.0,0.0,0.0,0.0,0.292,0.354,9.71,0.0,0.0,0.0,0.0,0.0,0.0,0.0,0.0,0.0
1576104152302064884,39724,1576104152301478624,,0.0,0.0,0.0,0.0,0.0,0.0,0.0,0.0,0.0,0.0,0.0,0.0,0.0,0.0,0.002,0.01,0.0,0.0,0.0,0.0,0.0,0.0,0.0,0.0,0.0,0.256,0.337,9.7,0.0,0.0,0.0,0.0,0.0,0.0,0.0,0.0,0.0
1576104152302477816,39725,1576104152302120685,,0.0,0.0,0.0,0.0,0.0,0.0,0.0,0.0,0.0,0.0,0.0,0.0,0.0,0.0,0.002,0.0,0.0,0.0,0.0,0.0,0.0,0.0,0.0,0.0,0.0,0.261,0.344,9.7,0.0,0.0,0.0,0.0,0.0,0.0,0.0,0.0,0.0
1576104152302885839,39726,1576104152302562475,,0.0,0.0,0.0,0.0,0.0,0.0,0.0,0.0,0.0,0.0,0.0,0.0,0.0,-0.001,0.003,0.0,0.0,0.0,0.0,0.0,0.0,0.0,0.0,0.0,0.0,0.29,0.294,9.69,0.0,0.0,0.0,0.0,0.0,0.0,0.0,0.0,0.0
1576104152303379565,39727,1576104152303098440,,0.0,0.0,0.0,0.0,0.0,0.0,0.0,0.0,0.0,0.0,0.0,0.0,0.0,0.001,0.001,0.0,0.0,0.0,0.0,0.0,0.0,0.0,0.0,0.0,0.0,0.29,0.246,9.67,0.0,0.0,0.0,0.0,0.0,0.0,0.0,0.0,0.0
1576104152303686677,39728,1576104152303432464,,0.0,0.0,0.0,0.0,0.0,0.0,0.0,0.0,0.0,0.0,0.0,0.0,0.0,-0.002,0.003,0.0,0.0,0.0,0.0,0.0,0.0,0.0,0.0,0.0,0.0,0.302,0.212,9.68,0.0,0.0,0.0,0.0,0.0,0.0,0.0,0.0,0.0
1576104152310873681,39729,1576104152309816122,,0.0,0.0,0.0,0.0,0.0,0.0,0.0,0.0,0.0,0.0,0.0,0.0,0.0,0.0,0.002,0.0,0.0,0.0,0.0,0.0,0.0,0.0,0.0,0.0,0.0,0.29,0.212,9.68,0.0,0.0,0.0,0.0,0.0,0.0,0.0,0.0,0.0
1576104152310908344,39730,1576104152310175418,,0.0,0.0,0.0,0.0,0.0,0.0,0.0,0.0,0.0,0.0,0.0,0.0,0.0,0.001,-0.0,0.01,0.0,0.0,0.0,0.0,0.0,0.0,0.0,0.0,0.0,0.307,0.193,9.69,0.0,0.0,0.0,0.0,0.0,0.0,0.0,0.0,0.0
1576104152310925932,39731,1576104152310446023,,0.0,0.0,0.0,0.0,0.0,0.0,0.0,0.0,0.0,0.0,0.0,0.0,0.0,-0.001,0.002,0.0,0.0,0.0,0.0,0.0,0.0,0.0,0.0,0.0,0.0,0.299,0.21,9.65,0.0,0.0,0.0,0.0,0.0,0.0,0.0,0.0,0.0
1576104152312289939,39732,1576104152311858415,,0.0,0.0,0.0,0.0,0.0,0.0,0.0,0.0,0.0,0.0,0.0,0.0,0.0,-0.001,-0.001,0.0,0.0,0.0,0.0,0.0,0.0,0.0,0.0,0.0,0.0,0.328,0.196,9.68,0.0,0.0,0.0,0.0,0.0,0.0,0.0,0.0,0.0
1576104152314204367,39733,1576104152313734769,,0.0,0.0,0.0,0.0,0.0,0.0,0.0,0.0,0.0,0.0,0.0,0.0,0.0,0.0,-0.001,0.0,0.0,0.0,0.0,0.0,0.0,0.0,0.0,0.0,0.0,0.326,0.205,9.7,0.0,0.0,0.0,0.0,0.0,0.0,0.0,0.0,0.0
1576104152315308044,39734,1576104152314231395,,0.0,0.0,0.0,0.0,0.0,0.0,0.0,0.0,0.0,0.0,0.0,0.0,0.0,0.0,-0.001,0.0,0.0,0.0,0.0,0.0,0.0,0.0,0.0,0.0,0.0,0.352,0.208,9.71,0.0,0.0,0.0,0.0,0.0,0.0,0.0,0.0,0.0
1576104152315343419,39735,1576104152314543247,,0.0,0.0,0.0,0.0,0.0,0.0,0.0,0.0,0.0,0.0,0.0,0.0,0.0,0.001,-0.003,0.0,0.0,0.0,0.0,0.0,0.0,0.0,0.0,0.0,0.0,0.369,0.208,9.71,0.0,0.0,0.0,0.0,0.0,0.0,0.0,0.0,0.0
1576104152315386730,39736,1576104152314802408,,0.0,0.0,0.0,0.0,0.0,0.0,0.0,0.0,0.0,0.0,0.0,0.0,0.0,0.001,-0.003,0.0,0.0,0.0,0.0,0.0,0.0,0.0,0.0,0.0,0.0,0.362,0.205,9.7,0.0,0.0,0.0,0.0,0.0,0.0,0.0,0.0,0.0
1576104152315903139,39737,1576104152315346002,,0.0,0.0,0.0,0.0,0.0,0.0,0.0,0.0,0.0,0.0,0.0,0.0,0.0,0.001,-0.001,0.0,0.0,0.0,0.0,0.0,0.0,0.0,0.0,0.0,0.0,0.362,0.224,9.71,0.0,0.0,0.0,0.0,0.0,0.0,0.0,0.0,0.0
1576104152316247899,39738,1576104152315836429,,0.0,0.0,0.0,0.0,0.0,0.0,0.0,0.0,0.0,0.0,0.0,0.0,0.0,0.0,0.002,0.0,0.0,0.0,0.0,0.0,0.0,0.0,0.0,0.0,0.0,0.371,0.27,9.67,0.0,0.0,0.0,0.0,0.0,0.0,0.0,0.0,0.0
1576104152316786846,39739,1576104152316434860,,0.0,0.0,0.0,0.0,0.0,0.0,0.0,0.0,0.0,0.0,0.0,0.0,0.0,0.0,0.001,0.0,0.0,0.0,0.0,0.0,0.0,0.0,0.0,0.0,0.0,0.374,0.291,9.7,0.0,0.0,0.0,0.0,0.0,0.0,0.0,0.0,0.0
1576104152317141938,39740,1576104152316760063,,0.0,0.0,0.0,0.0,0.0,0.0,0.0,0.0,0.0,0.0,0.0,0.0,0.0,0.003,0.001,0.0,0.0,0.0,0.0,0.0,0.0,0.0,0.0,0.0,0.0,0.381,0.323,9.71,0.0,0.0,0.0,0.0,0.0,0.0,0.0,0.0,0.0
1576104152318326596,39741,1576104152317945957,,0.0,0.0,0.0,0.0,0.0,0.0,0.0,0.0,0.0,0.0,0.0,0.0,0.0,0.003,-0.001,0.0,0.0,0.0,0.0,0.0,0.0,0.0,0.0,0.0,0.0,0.376,0.347,9.69,0.0,0.0,0.0,0.0,0.0,0.0,0.0,0.0,0.0
1576104152322299009,39742,1576104152321909189,,0.0,0.0,0.0,0.0,0.0,0.0,0.0,0.0,0.0,0.0,0.0,0.0,0.0,-0.001,0.002,-0.0,0.0,0.0,0.0,0.0,0.0,0.0,0.0,0.0,0.0,0.364,0.349,9.7,0.0,0.0,0.0,0.0,0.0,0.0,0.0,0.0,0.0
1576104152324768993,39743,1576104152324120521,,0.0,0.0,0.0,0.0,0.0,0.0,0.0,0.0,0.0,0.0,0.0,0.0,0.0,0.001,-0.0,-0.0,0.0,0.0,0.0,0.0,0.0,0.0,0.0,0.0,0.0,0.369,0.39,9.69,0.0,0.0,0.0,0.0,0.0,0.0,0.0,0.0,0.0
1576104152326473807,39744,1576104152325790643,,0.0,0.0,0.0,0.0,0.0,0.0,0.0,0.0,0.0,0.0,0.0,0.0,0.0,0.0,0.001,-0.0,0.0,0.0,0.0,0.0,0.0,0.0,0.0,0.0,0.0,0.347,0.416,9.67,0.0,0.0,0.0,0.0,0.0,0.0,0.0,0.0,0.0
1576104152331281800,39745,1576104152330260753,,0.0,0.0,0.0,0.0,0.0,0.0,0.0,0.0,0.0,0.0,0.0,0.0,0.0,0.0,0.001,-0.0,0.0,0.0,0.0,0.0,0.0,0.0,0.0,0.0,0.0,0.34,0.416,9.66,0.0,0.0,0.0,0.0,0.0,0.0,0.0,0.0,0.0
1576104152331326347,39746,1576104152330682992,,0.0,0.0,0.0,0.0,0.0,0.0,0.0,0.0,0.0,0.0,0.0,0.0,0.0,-0.001,0.001,-0.0,0.0,0.0,0.0,0.0,0.0,0.0,0.0,0.0,0.0,0.357,0.433,9.7,0.0,0.0,0.0,0.0,0.0,0.0,0.0,0.0,0.0
1576104152337162876,39747,1576104152336415529,,0.0,0.0,0.0,0.0,0.0,0.0,0.0,0.0,0.0,0.0,0.0,0.0,0.0,0.0,0.001,-0.0,0.0,0.0,0.0,0.0,0.0,0.0,0.0,0.0,0.0,0.345,0.473,9.69,0.0,0.0,0.0,0.0,0.0,0.0,0.0,0.0,0.0
1576104152340040665,39748,1576104152339405536,,0.0,0.0,0.0,0.0,0.0,0.0,0.0,0.0,0.0,0.0,0.0,0.0,0.0,-0.002,0.001,-0.0,0.0,0.0,0.0,0.0,0.0,0.0,0.0,0.0,0.0,0.333,0.481,9.68,0.0,0.0,0.0,0.0,0.0,0.0,0.0,0.0,0.0
1576104152343276158,39749,1576104152342589616,,0.0,0.0,0.0,0.0,0.0,0.0,0.0,0.0,0.0,0.0,0.0,0.0,0.0,0.0,-0.0,-0.0,0.0,0.0,0.0,0.0,0.0,0.0,0.0,0.0,0.0,0.278,0.485,9.69,0.0,0.0,0.0,0.0,0.0,0.0,0.0,0.0,0.0
1576104152345576095,39750,1576104152344892740,,0.0,0.0,0.0,0.0,0.0,0.0,0.0,0.0,0.0,0.0,0.0,0.0,0.0,0.001,-0.001,-0.0,0.0,0.0,0.0,0.0,0.0,0.0,0.0,0.0,0.0,0.266,0.526,9.7,0.0,0.0,0.0,0.0,0.0,0.0,0.0,0.0,0.0
1576104152352579124,39751,1576104152351613998,,0.0,0.0,0.0,0.0,0.0,0.0,0.0,0.0,0.0,0.0,0.0,0.0,0.0,-0.002,0.001,-0.0,0.0,0.0,0.0,0.0,0.0,0.0,0.0,0.0,0.0,0.23,0.521,9.67,0.0,0.0,0.0,0.0,0.0,0.0,0.0,0.0,0.0
1576104152352606776,39752,1576104152352003335,,0.0,0.0,0.0,0.0,0.0,0.0,0.0,0.0,0.0,0.0,0.0,0.0,0.0,-0.001,-0.0,-0.0,0.0,0.0,0.0,0.0,0.0,0.0,0.0,0.0,0.0,0.235,0.512,9.66,0.0,0.0,0.0,0.0,0.0,0.0,0.0,0.0,0.0
1576104152355605781,39753,1576104152355053424,,0.0,0.0,0.0,0.0,0.0,0.0,0.0,0.0,0.0,0.0,0.0,0.0,0.0,0.001,-0.001,-0.0,0.0,0.0,0.0,0.0,0.0,0.0,0.0,0.0,0.0,0.225,0.533,9.68,0.0,0.0,0.0,0.0,0.0,0.0,0.0,0.0,0.0
1576104152359684339,39754,1576104152359253406,,0.0,0.0,0.0,0.0,0.0,0.0,0.0,0.0,0.0,0.0,0.0,0.0,0.0,0.001,-0.001,-0.0,0.0,0.0,0.0,0.0,0.0,0.0,0.0,0.0,0.0,0.208,0.497,9.66,0.0,0.0,0.0,0.0,0.0,0.0,0.0,0.0,0.0
1576104152362191462,39755,1576104152361747980,,0.0,0.0,0.0,0.0,0.0,0.0,0.0,0.0,0.0,0.0,0.0,0.0,0.0,-0.002,-0.001,-0.0,0.0,0.0,0.0,0.0,0.0,0.0,0.0,0.0,0.0,0.189,0.507,9.67,0.0,0.0,0.0,0.0,0.0,0.0,0.0,0.0,0.0
1576104152365613469,39756,1576104152365071296,,0.0,0.0,0.0,0.0,0.0,0.0,0.0,0.0,0.0,0.0,0.0,0.0,0.0,0.0,-0.001,-0.0,0.0,0.0,0.0,0.0,0.0,0.0,0.0,0.0,0.0,0.201,0.473,9.67,0.0,0.0,0.0,0.0,0.0,0.0,0.0,0.0,0.0
1576104152371522781,39757,1576104152370771646,,0.0,0.0,0.0,0.0,0.0,0.0,0.0,0.0,0.0,0.0,0.0,0.0,0.0,0.0,-0.003,-0.0,0.0,0.0,0.0,0.0,0.0,0.0,0.0,0.0,0.0,0.184,0.447,9.71,0.0,0.0,0.0,0.0,0.0,0.0,0.0,0.0,0.0
1576104152372648126,39758,1576104152372003078,,0.0,0.0,0.0,0.0,0.0,0.0,0.0,0.0,0.0,0.0,0.0,0.0,0.0,-0.001,-0.001,-0.0,0.0,0.0,0.0,0.0,0.0,0.0,0.0,0.0,0.0,0.204,0.418,9.69,0.0,0.0,0.0,0.0,0.0,0.0,0.0,0.0,0.0
1576104152378102931,39759,1576104152377458333,,0.0,0.0,0.0,0.0,0.0,0.0,0.0,0.0,0.0,0.0,0.0,0.0,0.0,-0.001,-0.003,-0.0,0.0,0.0,0.0,0.0,0.0,0.0,0.0,0.0,0.0,0.23,0.378,9.67,0.0,0.0,0.0,0.0,0.0,0.0,0.0,0.0,0.0
1576104152381313635,39760,1576104152380828619,,0.0,0.0,0.0,0.0,0.0,0.0,0.0,0.0,0.0,0.0,0.0,0.0,0.0,0.001,-0.003,-0.0,0.0,0.0,0.0,0.0,0.0,0.0,0.0,0.0,0.0,0.24,0.344,9.7,0.0,0.0,0.0,0.0,0.0,0.0,0.0,0.0,0.0
1576104152384405334,39761,1576104152383593559,,0.0,0.0,0.0,0.0,0.0,0.0,0.0,0.0,0.0,0.0,0.0,0.0,0.0,-0.002,-0.0,-0.0,0.0,0.0,0.0,0.0,0.0,0.0,0.0,0.0,0.0,0.268,0.287,9.68,0.0,0.0,0.0,0.0,0.0,0.0,0.0,0.0,0.0
1576104152408882772,39762,1576104152408056020,,0.0,0.0,0.0,0.0,0.0,0.0,0.0,0.0,0.0,0.0,0.0,0.0,0.0,-0.001,0.001,-0.0,0.0,0.0,0.0,0.0,0.0,0.0,0.0,0.0,0.0,0.271,0.27,9.7,0.0,0.0,0.0,0.0,0.0,0.0,0.0,0.0,0.0
1576104152410584182,39763,1576104152409746408,,0.0,0.0,0.0,0.0,0.0,0.0,0.0,0.0,0.0,0.0,0.0,0.0,0.0,0.003,-0.003,0.0,0.0,0.0,0.0,0.0,0.0,0.0,0.0,0.0,0.0,0.295,0.224,9.68,0.0,0.0,0.0,0.0,0.0,0.0,0.0,0.0,0.0
1576104152411782842,39764,1576104152411100625,,0.0,0.0,0.0,0.0,0.0,0.0,0.0,0.0,0.0,0.0,0.0,0.0,0.0,0.001,-0.003,0.0,0.0,0.0,0.0,0.0,0.0,0.0,0.0,0.0,0.0,0.319,0.22,9.7,0.0,0.0,0.0,0.0,0.0,0.0,0.0,0.0,0.0
1576104152463334046,39765,1576104152462114572,,0.0,0.0,0.0,0.0,0.0,0.0,0.0,0.0,0.0,0.0,0.0,0.0,0.0,0.004,-0.001,0.0,0.0,0.0,0.0,0.0,0.0,0.0,0.0,0.0,0.0,0.331,0.179,9.71,0.0,0.0,0.0,0.0,0.0,0.0,0.0,0.0,0.0
1576104152463365515,39766,1576104152462566375,,0.0,0.0,0.0,0.0,0.0,0.0,0.0,0.0,0.0,0.0,0.0,0.0,0.0,0.001,-0.003,0.0,0.0,0.0,0.0,0.0,0.0,0.0,0.0,0.0,0.0,0.352,0.191,9.72,0.0,0.0,0.0,0.0,0.0,0.0,0.0,0.0,0.0
1576104152463611364,39767,1576104152462952852,,0.0,0.0,0.0,0.0,0.0,0.0,0.0,0.0,0.0,0.0,0.0,0.0,0.0,0.001,-0.001,0.0,0.0,0.0,0.0,0.0,0.0,0.0,0.0,0.0,0.0,0.376,0.179,9.69,0.0,0.0,0.0,0.0,0.0,0.0,0.0,0.0,0.0
1576104152464684117,39768,1576104152463922500,,0.0,0.0,0.0,0.0,0.0,0.0,0.0,0.0,0.0,0.0,0.0,0.0,0.0,-0.001,-0.0,0.0,0.0,0.0,0.0,0.0,0.0,0.0,0.0,0.0,0.0,0.395,0.196,9.7,0.0,0.0,0.0,0.0,0.0,0.0,0.0,0.0,0.0
1576104152464890980,39769,1576104152464378118,,0.0,0.0,0.0,0.0,0.0,0.0,0.0,0.0,0.0,0.0,0.0,0.0,0.0,-0.001,0.001,0.0,0.0,0.0,0.0,0.0,0.0,0.0,0.0,0.0,0.0,0.419,0.232,9.71,0.0,0.0,0.0,0.0,0.0,0.0,0.0,0.0,0.0
1576104152465676165,39770,1576104152465019464,,0.0,0.0,0.0,0.0,0.0,0.0,0.0,0.0,0.0,0.0,0.0,0.0,0.0,0.003,-0.001,0.0,0.0,0.0,0.0,0.0,0.0,0.0,0.0,0.0,0.0,0.438,0.232,9.67,0.0,0.0,0.0,0.0,0.0,0.0,0.0,0.0,0.0
1576104152465924018,39771,1576104152465449810,,0.0,0.0,0.0,0.0,0.0,0.0,0.0,0.0,0.0,0.0,0.0,0.0,0.0,-0.001,-0.0,0.0,0.0,0.0,0.0,0.0,0.0,0.0,0.0,0.0,0.0,0.465,0.244,9.68,0.0,0.0,0.0,0.0,0.0,0.0,0.0,0.0,0.0
1576104152466626866,39772,1576104152466271638,,0.0,0.0,0.0,0.0,0.0,0.0,0.0,0.0,0.0,0.0,0.0,0.0,0.0,0.001,-0.001,0.0,0.0,0.0,0.0,0.0,0.0,0.0,0.0,0.0,0.0,0.472,0.275,9.68,0.0,0.0,0.0,0.0,0.0,0.0,0.0,0.0,0.0
1576104152467244389,39773,1576104152466624021,,0.0,0.0,0.0,0.0,0.0,0.0,0.0,0.0,0.0,0.0,0.0,0.0,0.0,0.0,-0.001,0.0,0.0,0.0,0.0,0.0,0.0,0.0,0.0,0.0,0.0,0.481,0.282,9.66,0.0,0.0,0.0,0.0,0.0,0.0,0.0,0.0,0.0
1576104152467478685,39774,1576104152466889619,,0.0,0.0,0.0,0.0,0.0,0.0,0.0,0.0,0.0,0.0,0.0,0.0,0.0,0.001,-0.0,0.0,0.0,0.0,0.0,0.0,0.0,0.0,0.0,0.0,0.0,0.489,0.27,9.69,0.0,0.0,0.0,0.0,0.0,0.0,0.0,0.0,0.0
1576104152468151208,39775,1576104152467750549,,0.0,0.0,0.0,0.0,0.0,0.0,0.0,0.0,0.0,0.0,0.0,0.0,0.0,0.0,-0.0,0.0,0.0,0.0,0.0,0.0,0.0,0.0,0.0,0.0,0.0,0.515,0.301,9.68,0.0,0.0,0.0,0.0,0.0,0.0,0.0,0.0,0.0
1576104152468703069,39776,1576104152468154191,,0.0,0.0,0.0,0.0,0.0,0.0,0.0,0.0,0.0,0.0,0.0,0.0,0.0,0.001,-0.001,0.0,0.0,0.0,0.0,0.0,0.0,0.0,0.0,0.0,0.0,0.541,0.296,9.71,0.0,0.0,0.0,0.0,0.0,0.0,0.0,0.0,0.0
1576104152469748450,39777,1576104152468858003,,0.0,0.0,0.0,0.0,0.0,0.0,0.0,0.0,0.0,0.0,0.0,0.0,0.0,0.004,-0.003,0.0,0.0,0.0,0.0,0.0,0.0,0.0,0.0,0.0,0.0,0.529,0.301,9.7,0.0,0.0,0.0,0.0,0.0,0.0,0.0,0.0,0.0
1576104152469785730,39778,1576104152469224214,,0.0,0.0,0.0,0.0,0.0,0.0,0.0,0.0,0.0,0.0,0.0,0.0,0.0,-0.001,0.001,0.0,0.0,0.0,0.0,0.0,0.0,0.0,0.0,0.0,0.0,0.57,0.301,9.7,0.0,0.0,0.0,0.0,0.0,0.0,0.0,0.0,0.0
1576104152470258238,39779,1576104152469814062,,0.0,0.0,0.0,0.0,0.0,0.0,0.0,0.0,0.0,0.0,0.0,0.0,0.0,0.0,-0.0,0.0,0.0,0.0,0.0,0.0,0.0,0.0,0.0,0.0,0.0,0.558,0.301,9.68,0.0,0.0,0.0,0.0,0.0,0.0,0.0,0.0,0.0
1576104152470547781,39780,1576104152470250129,,0.0,0.0,0.0,0.0,0.0,0.0,0.0,0.0,0.0,0.0,0.0,0.0,0.0,-0.001,-0.0,-0.0,0.0,0.0,0.0,0.0,0.0,0.0,0.0,0.0,0.0,0.577,0.315,9.68,0.0,0.0,0.0,0.0,0.0,0.0,0.0,0.0,0.0
1576104152470901002,39781,1576104152470601797,,0.0,0.0,0.0,0.0,0.0,0.0,0.0,0.0,0.0,0.0,0.0,0.0,0.0,-0.005,-0.0,-0.0,0.0,0.0,0.0,0.0,0.0,0.0,0.0,0.0,0.0,0.57,0.294,9.71,0.0,0.0,0.0,0.0,0.0,0.0,0.0,0.0,0.0
1576104152471299078,39782,1576104152470907926,,0.0,0.0,0.0,0.0,0.0,0.0,0.0,0.0,0.0,0.0,0.0,0.0,0.0,-0.001,-0.0,-0.0,0.0,0.0,0.0,0.0,0.0,0.0,0.0,0.0,0.0,0.544,0.313,9.71,0.0,0.0,0.0,0.0,0.0,0.0,0.0,0.0,0.0
1576104152471579534,39783,1576104152471297740,,0.0,0.0,0.0,0.0,0.0,0.0,0.0,0.0,0.0,0.0,0.0,0.0,0.0,-0.002,-0.0,-0.0,0.0,0.0,0.0,0.0,0.0,0.0,0.0,0.0,0.0,0.582,0.277,9.68,0.0,0.0,0.0,0.0,0.0,0.0,0.0,0.0,0.0
1576104152472189084,39784,1576104152471728324,,0.0,0.0,0.0,0.0,0.0,0.0,0.0,0.0,0.0,0.0,0.0,0.0,0.0,0.0,0.003,-0.0,0.0,0.0,0.0,0.0,0.0,0.0,0.0,0.0,0.0,0.546,0.335,9.68,0.0,0.0,0.0,0.0,0.0,0.0,0.0,0.0,0.0
1576104152472340564,39785,1576104152471976757,,0.0,0.0,0.0,0.0,0.0,0.0,0.0,0.0,0.0,0.0,0.0,0.0,0.0,0.003,0.001,-0.0,0.0,0.0,0.0,0.0,0.0,0.0,0.0,0.0,0.0,0.529,0.356,9.68,0.0,0.0,0.0,0.0,0.0,0.0,0.0,0.0,0.0
1576104152472690462,39786,1576104152472315549,,0.0,0.0,0.0,0.0,0.0,0.0,0.0,0.0,0.0,0.0,0.0,0.0,0.0,0.0,0.001,-0.0,0.0,0.0,0.0,0.0,0.0,0.0,0.0,0.0,0.0,0.522,0.375,9.68,0.0,0.0,0.0,0.0,0.0,0.0,0.0,0.0,0.0
1576104152473095021,39787,1576104152472734212,,0.0,0.0,0.0,0.0,0.0,0.0,0.0,0.0,0.0,0.0,0.0,0.0,0.0,0.0,0.001,-0.0,0.0,0.0,0.0,0.0,0.0,0.0,0.0,0.0,0.0,0.484,0.428,9.68,0.0,0.0,0.0,0.0,0.0,0.0,0.0,0.0,0.0
1576104152473401773,39788,1576104152473082065,,0.0,0.0,0.0,0.0,0.0,0.0,0.0,0.0,0.0,0.0,0.0,0.0,0.0,0.001,0.001,-0.0,0.0,0.0,0.0,0.0,0.0,0.0,0.0,0.0,0.0,0.467,0.43,9.67,0.0,0.0,0.0,0.0,0.0,0.0,0.0,0.0,0.0
1576104152473934039,39789,1576104152473376274,,0.0,0.0,0.0,0.0,0.0,0.0,0.0,0.0,0.0,0.0,0.0,0.0,0.0,0.001,-0.0,-0.01,0.0,0.0,0.0,0.0,0.0,0.0,0.0,0.0,0.0,0.438,0.478,9.68,0.0,0.0,0.0,0.0,0.0,0.0,0.0,0.0,0.0
1576104152474223380,39790,1576104152473732233,,0.0,0.0,0.0,0.0,0.0,0.0,0.0,0.0,0.0,0.0,0.0,0.0,0.0,0.0,0.002,-0.0,0.0,0.0,0.0,0.0,0.0,0.0,0.0,0.0,0.0,0.405,0.485,9.69,0.0,0.0,0.0,0.0,0.0,0.0,0.0,0.0,0.0
1576104152474346225,39791,1576104152474021196,,0.0,0.0,0.0,0.0,0.0,0.0,0.0,0.0,0.0,0.0,0.0,0.0,0.0,0.003,0.003,-0.0,0.0,0.0,0.0,0.0,0.0,0.0,0.0,0.0,0.0,0.383,0.502,9.68,0.0,0.0,0.0,0.0,0.0,0.0,0.0,0.0,0.0
1576104152475195660,39792,1576104152474850654,,0.0,0.0,0.0,0.0,0.0,0.0,0.0,0.0,0.0,0.0,0.0,0.0,0.0,0.001,0.003,-0.0,0.0,0.0,0.0,0.0,0.0,0.0,0.0,0.0,0.0,0.359,0.531,9.68,0.0,0.0,0.0,0.0,0.0,0.0,0.0,0.0,0.0
1576104152480143934,39793,1576104152479708909,,0.0,0.0,0.0,0.0,0.0,0.0,0.0,0.0,0.0,0.0,0.0,0.0,0.0,0.0,0.002,-0.0,0.0,0.0,0.0,0.0,0.0,0.0,0.0,0.0,0.0,0.292,0.593,9.67,0.0,0.0,0.0,0.0,0.0,0.0,0.0,0.0,0.0
1576104152482059821,39794,1576104152481676101,,0.0,0.0,0.0,0.0,0.0,0.0,0.0,0.0,0.0,0.0,0.0,0.0,0.0,-0.001,0.003,-0.0,0.0,0.0,0.0,0.0,0.0,0.0,0.0,0.0,0.0,0.273,0.603,9.67,0.0,0.0,0.0,0.0,0.0,0.0,0.0,0.0,0.0
1576104152511050540,39795,1576104152510102033,,0.0,0.0,0.0,0.0,0.0,0.0,0.0,0.0,0.0,0.0,0.0,0.0,0.0,0.004,0.002,-0.0,0.0,0.0,0.0,0.0,0.0,0.0,0.0,0.0,0.0,0.204,0.615,9.68,0.0,0.0,0.0,0.0,0.0,0.0,0.0,0.0,0.0
1576104152512864402,39796,1576104152512263536,,0.0,0.0,0.0,0.0,0.0,0.0,0.0,0.0,0.0,0.0,0.0,0.0,0.0,0.0,0.003,-0.0,0.0,0.0,0.0,0.0,0.0,0.0,0.0,0.0,0.0,0.149,0.612,9.67,0.0,0.0,0.0,0.0,0.0,0.0,0.0,0.0,0.0
1576104152514743406,39797,1576104152513853073,,0.0,0.0,0.0,0.0,0.0,0.0,0.0,0.0,0.0,0.0,0.0,0.0,0.0,0.0,0.001,-0.0,0.0,0.0,0.0,0.0,0.0,0.0,0.0,0.0,0.0,0.108,0.56,9.69,0.0,0.0,0.0,0.0,0.0,0.0,0.0,0.0,0.0
1576104152514771271,39798,1576104152514203310,,0.0,0.0,0.0,0.0,0.0,0.0,0.0,0.0,0.0,0.0,0.0,0.0,0.0,0.001,-0.0,-0.0,0.0,0.0,0.0,0.0,0.0,0.0,0.0,0.0,0.0,0.127,0.548,9.67,0.0,0.0,0.0,0.0,0.0,0.0,0.0,0.0,0.0
1576104152516585733,39799,1576104152515907526,,0.0,0.0,0.0,0.0,0.0,0.0,0.0,0.0,0.0,0.0,0.0,0.0,0.0,0.003,0.001,0.0,0.0,0.0,0.0,0.0,0.0,0.0,0.0,0.0,0.0,0.127,0.488,9.68,0.0,0.0,0.0,0.0,0.0,0.0,0.0,0.0,0.0
1576104152517431683,39800,1576104152516791820,,0.0,0.0,0.0,0.0,0.0,0.0,0.0,0.0,0.0,0.0,0.0,0.0,0.0,-0.001,0.002,0.0,0.0,0.0,0.0,0.0,0.0,0.0,0.0,0.0,0.0,0.139,0.416,9.69,0.0,0.0,0.0,0.0,0.0,0.0,0.0,0.0,0.0
1576104152518225990,39801,1576104152517111539,,0.0,0.0,0.0,0.0,0.0,0.0,0.0,0.0,0.0,0.0,0.0,0.0,0.0,0.0,0.001,0.0,0.0,0.0,0.0,0.0,0.0,0.0,0.0,0.0,0.0,0.149,0.397,9.7,0.0,0.0,0.0,0.0,0.0,0.0,0.0,0.0,0.0
1576104152518262488,39802,1576104152517662286,,0.0,0.0,0.0,0.0,0.0,0.0,0.0,0.0,0.0,0.0,0.0,0.0,0.0,-0.002,-0.0,0.0,0.0,0.0,0.0,0.0,0.0,0.0,0.0,0.0,0.0,0.168,0.347,9.7,0.0,0.0,0.0,0.0,0.0,0.0,0.0,0.0,0.0
1576104152518509068,39803,1576104152518063306,,0.0,0.0,0.0,0.0,0.0,0.0,0.0,0.0,0.0,0.0,0.0,0.0,0.0,0.001,-0.0,0.0,0.0,0.0,0.0,0.0,0.0,0.0,0.0,0.0,0.0,0.204,0.315,9.7,0.0,0.0,0.0,0.0,0.0,0.0,0.0,0.0,0.0
1576104152520570110,39804,1576104152520127058,,0.0,0.0,0.0,0.0,0.0,0.0,0.0,0.0,0.0,0.0,0.0,0.0,0.0,-0.001,-0.0,0.0,0.0,0.0,0.0,0.0,0.0,0.0,0.0,0.0,0.0,0.213,0.28,9.71,0.0,0.0,0.0,0.0,0.0,0.0,0.0,0.0,0.0
1576104152521258735,39805,1576104152520618915,,0.0,0.0,0.0,0.0,0.0,0.0,0.0,0.0,0.0,0.0,0.0,0.0,0.0,0.0,0.001,0.0,0.0,0.0,0.0,0.0,0.0,0.0,0.0,0.0,0.0,0.208,0.275,9.69,0.0,0.0,0.0,0.0,0.0,0.0,0.0,0.0,0.0
1576104152522015792,39806,1576104152521470069,,0.0,0.0,0.0,0.0,0.0,0.0,0.0,0.0,0.0,0.0,0.0,0.0,0.0,0.001,-0.001,0.0,0.0,0.0,0.0,0.0,0.0,0.0,0.0,0.0,0.0,0.184,0.224,9.7,0.0,0.0,0.0,0.0,0.0,0.0,0.0,0.0,0.0
1576104152525350591,39807,1576104152524707794,,0.0,0.0,0.0,0.0,0.0,0.0,0.0,0.0,0.0,0.0,0.0,0.0,0.0,-0.001,-0.0,0.0,0.0,0.0,0.0,0.0,0.0,0.0,0.0,0.0,0.0,0.275,0.181,9.71,0.0,0.0,0.0,0.0,0.0,0.0,0.0,0.0,0.0
1576104152528698186,39808,1576104152528000831,,0.0,0.0,0.0,0.0,0.0,0.0,0.0,0.0,0.0,0.0,0.0,0.0,0.0,0.0,-0.0,0.0,0.0,0.0,0.0,0.0,0.0,0.0,0.0,0.0,0.0,0.259,0.157,9.71,0.0,0.0,0.0,0.0,0.0,0.0,0.0,0.0,0.0
1576104152531153443,39809,1576104152530410289,,0.0,0.0,0.0,0.0,0.0,0.0,0.0,0.0,0.0,0.0,0.0,0.0,0.0,0.001,-0.0,0.01,0.0,0.0,0.0,0.0,0.0,0.0,0.0,0.0,0.0,0.292,0.153,9.7,0.0,0.0,0.0,0.0,0.0,0.0,0.0,0.0,0.0
1576104152532086113,39810,1576104152531425714,,0.0,0.0,0.0,0.0,0.0,0.0,0.0,0.0,0.0,0.0,0.0,0.0,0.0,0.001,0.001,0.0,0.0,0.0,0.0,0.0,0.0,0.0,0.0,0.0,0.0,0.297,0.145,9.7,0.0,0.0,0.0,0.0,0.0,0.0,0.0,0.0,0.0
1576104152535371209,39811,1576104152534675598,,0.0,0.0,0.0,0.0,0.0,0.0,0.0,0.0,0.0,0.0,0.0,0.0,0.0,0.0,-0.0,0.0,0.0,0.0,0.0,0.0,0.0,0.0,0.0,0.0,0.0,0.34,0.126,9.7,0.0,0.0,0.0,0.0,0.0,0.0,0.0,0.0,0.0
1576104152538709188,39812,1576104152538128376,,0.0,0.0,0.0,0.0,0.0,0.0,0.0,0.0,0.0,0.0,0.0,0.0,0.0,0.0,-0.0,0.0,0.0,0.0,0.0,0.0,0.0,0.0,0.0,0.0,0.0,0.359,0.095,9.69,0.0,0.0,0.0,0.0,0.0,0.0,0.0,0.0,0.0
1576104152541977158,39813,1576104152541297912,,0.0,0.0,0.0,0.0,0.0,0.0,0.0,0.0,0.0,0.0,0.0,0.0,0.0,0.001,-0.001,0.0,0.0,0.0,0.0,0.0,0.0,0.0,0.0,0.0,0.0,0.395,0.088,9.7,0.0,0.0,0.0,0.0,0.0,0.0,0.0,0.0,0.0
1576104152550203940,39814,1576104152549539089,,0.0,0.0,0.0,0.0,0.0,0.0,0.0,0.0,0.0,0.0,0.0,0.0,0.0,0.004,-0.0,0.0,0.0,0.0,0.0,0.0,0.0,0.0,0.0,0.0,0.0,0.436,0.057,9.71,0.0,0.0,0.0,0.0,0.0,0.0,0.0,0.0,0.0
1576104152553315525,39815,1576104152552674055,,0.0,0.0,0.0,0.0,0.0,0.0,0.0,0.0,0.0,0.0,0.0,0.0,0.0,0.001,-0.0,0.0,0.0,0.0,0.0,0.0,0.0,0.0,0.0,0.0,0.0,0.445,0.05,9.69,0.0,0.0,0.0,0.0,0.0,0.0,0.0,0.0,0.0
1576104152557046759,39816,1576104152556414127,,0.0,0.0,0.0,0.0,0.0,0.0,0.0,0.0,0.0,0.0,0.0,0.0,0.0,0.0,0.001,0.0,0.0,0.0,0.0,0.0,0.0,0.0,0.0,0.0,0.0,0.481,0.05,9.69,0.0,0.0,0.0,0.0,0.0,0.0,0.0,0.0,0.0
1576104152560824870,39817,1576104152560148000,,0.0,0.0,0.0,0.0,0.0,0.0,0.0,0.0,0.0,0.0,0.0,0.0,0.0,0.003,-0.0,-0.0,0.0,0.0,0.0,0.0,0.0,0.0,0.0,0.0,0.0,0.474,0.069,9.7,0.0,0.0,0.0,0.0,0.0,0.0,0.0,0.0,0.0
1576104152605790528,39818,1576104152605149507,,0.0,0.0,0.0,0.0,0.0,0.0,0.0,0.0,0.0,0.0,0.0,0.0,0.0,0.001,0.001,-0.0,0.0,0.0,0.0,0.0,0.0,0.0,0.0,0.0,0.0,0.457,0.071,9.7,0.0,0.0,0.0,0.0,0.0,0.0,0.0,0.0,0.0
1576104152606637842,39819,1576104152605876922,,0.0,0.0,0.0,0.0,0.0,0.0,0.0,0.0,0.0,0.0,0.0,0.0,0.0,0.004,-0.001,-0.0,0.0,0.0,0.0,0.0,0.0,0.0,0.0,0.0,0.0,0.443,0.066,9.7,0.0,0.0,0.0,0.0,0.0,0.0,0.0,0.0,0.0
1576104152606663374,39820,1576104152606225013,,0.0,0.0,0.0,0.0,0.0,0.0,0.0,0.0,0.0,0.0,0.0,0.0,0.0,0.001,-0.001,-0.0,0.0,0.0,0.0,0.0,0.0,0.0,0.0,0.0,0.0,0.433,0.076,9.71,0.0,0.0,0.0,0.0,0.0,0.0,0.0,0.0,0.0
1576104152607361982,39821,1576104152606690406,,0.0,0.0,0.0,0.0,0.0,0.0,0.0,0.0,0.0,0.0,0.0,0.0,0.0,0.003,-0.001,-0.0,0.0,0.0,0.0,0.0,0.0,0.0,0.0,0.0,0.0,0.431,0.076,9.69,0.0,0.0,0.0,0.0,0.0,0.0,0.0,0.0,0.0
1576104152607904156,39822,1576104152607510089,,0.0,0.0,0.0,0.0,0.0,0.0,0.0,0.0,0.0,0.0,0.0,0.0,0.0,0.003,-0.0,-0.0,0.0,0.0,0.0,0.0,0.0,0.0,0.0,0.0,0.0,0.424,0.093,9.69,0.0,0.0,0.0,0.0,0.0,0.0,0.0,0.0,0.0
1576104152608645382,39823,1576104152608034372,,0.0,0.0,0.0,0.0,0.0,0.0,0.0,0.0,0.0,0.0,0.0,0.0,0.0,0.001,0.002,-0.0,0.0,0.0,0.0,0.0,0.0,0.0,0.0,0.0,0.0,0.402,0.112,9.7,0.0,0.0,0.0,0.0,0.0,0.0,0.0,0.0,0.0
1576104152609623652,39824,1576104152608660459,,0.0,0.0,0.0,0.0,0.0,0.0,0.0,0.0,0.0,0.0,0.0,0.0,0.0,0.003,-0.0,-0.01,0.0,0.0,0.0,0.0,0.0,0.0,0.0,0.0,0.0,0.393,0.107,9.72,0.0,0.0,0.0,0.0,0.0,0.0,0.0,0.0,0.0
1576104152609664614,39825,1576104152609063625,,0.0,0.0,0.0,0.0,0.0,0.0,0.0,0.0,0.0,0.0,0.0,0.0,0.0,0.003,-0.0,-0.0,0.0,0.0,0.0,0.0,0.0,0.0,0.0,0.0,0.0,0.393,0.105,9.71,0.0,0.0,0.0,0.0,0.0,0.0,0.0,0.0,0.0
1576104152610687668,39826,1576104152609492301,,0.0,0.0,0.0,0.0,0.0,0.0,0.0,0.0,0.0,0.0,0.0,0.0,0.0,0.004,0.001,-0.0,0.0,0.0,0.0,0.0,0.0,0.0,0.0,0.0,0.0,0.407,0.138,9.69,0.0,0.0,0.0,0.0,0.0,0.0,0.0,0.0,0.0
1576104152610716130,39827,1576104152610042810,,0.0,0.0,0.0,0.0,0.0,0.0,0.0,0.0,0.0,0.0,0.0,0.0,0.0,0.003,0.001,-0.01,0.0,0.0,0.0,0.0,0.0,0.0,0.0,0.0,0.0,0.35,0.177,9.7,0.0,0.0,0.0,0.0,0.0,0.0,0.0,0.0,0.0
1576104152611040900,39828,1576104152610378026,,0.0,0.0,0.0,0.0,0.0,0.0,0.0,0.0,0.0,0.0,0.0,0.0,0.0,0.004,-0.0,-0.0,0.0,0.0,0.0,0.0,0.0,0.0,0.0,0.0,0.0,0.35,0.165,9.7,0.0,0.0,0.0,0.0,0.0,0.0,0.0,0.0,0.0
1576104152611491205,39829,1576104152611120700,,0.0,0.0,0.0,0.0,0.0,0.0,0.0,0.0,0.0,0.0,0.0,0.0,0.0,0.005,-0.0,-0.0,0.0,0.0,0.0,0.0,0.0,0.0,0.0,0.0,0.0,0.333,0.165,9.71,0.0,0.0,0.0,0.0,0.0,0.0,0.0,0.0,0.0
1576104152611913735,39830,1576104152611552715,,0.0,0.0,0.0,0.0,0.0,0.0,0.0,0.0,0.0,0.0,0.0,0.0,0.0,0.005,0.001,-0.01,0.0,0.0,0.0,0.0,0.0,0.0,0.0,0.0,0.0,0.326,0.167,9.7,0.0,0.0,0.0,0.0,0.0,0.0,0.0,0.0,0.0
1576104152612307902,39831,1576104152611960411,,0.0,0.0,0.0,0.0,0.0,0.0,0.0,0.0,0.0,0.0,0.0,0.0,0.0,0.006,0.002,-0.0,0.0,0.0,0.0,0.0,0.0,0.0,0.0,0.0,0.0,0.307,0.138,9.68,0.0,0.0,0.0,0.0,0.0,0.0,0.0,0.0,0.0
1576104152612801701,39832,1576104152612371206,,0.0,0.0,0.0,0.0,0.0,0.0,0.0,0.0,0.0,0.0,0.0,0.0,0.0,0.003,0.001,-0.0,0.0,0.0,0.0,0.0,0.0,0.0,0.0,0.0,0.0,0.285,0.167,9.72,0.0,0.0,0.0,0.0,0.0,0.0,0.0,0.0,0.0
1576104152613380252,39833,1576104152612934350,,0.0,0.0,0.0,0.0,0.0,0.0,0.0,0.0,0.0,0.0,0.0,0.0,0.0,0.003,-0.0,-0.01,0.0,0.0,0.0,0.0,0.0,0.0,0.0,0.0,0.0,0.244,0.16,9.7,0.0,0.0,0.0,0.0,0.0,0.0,0.0,0.0,0.0
1576104152614410498,39834,1576104152613340377,,0.0,0.0,0.0,0.0,0.0,0.0,0.0,0.0,0.0,0.0,0.0,0.0,0.0,0.004,-0.0,-0.0,0.0,0.0,0.0,0.0,0.0,0.0,0.0,0.0,0.0,0.225,0.16,9.7,0.0,0.0,0.0,0.0,0.0,0.0,0.0,0.0,0.0
1576104152614432195,39835,1576104152613667249,,0.0,0.0,0.0,0.0,0.0,0.0,0.0,0.0,0.0,0.0,0.0,0.0,0.0,0.003,-0.0,-0.0,0.0,0.0,0.0,0.0,0.0,0.0,0.0,0.0,0.0,0.201,0.153,9.7,0.0,0.0,0.0,0.0,0.0,0.0,0.0,0.0,0.0
1576104152614458748,39836,1576104152613974571,,0.0,0.0,0.0,0.0,0.0,0.0,0.0,0.0,0.0,0.0,0.0,0.0,0.0,0.003,-0.001,-0.0,0.0,0.0,0.0,0.0,0.0,0.0,0.0,0.0,0.0,0.216,0.114,9.85,0.0,0.0,0.0,0.0,0.0,0.0,0.0,0.0,0.0
1576104152620957702,39837,1576104152620441436,,0.0,0.0,0.0,0.0,0.0,0.0,0.0,0.0,0.0,0.0,0.0,0.0,0.0,0.005,0.006,-0.0,0.0,0.0,0.0,0.0,0.0,0.0,0.0,0.0,0.0,0.11,0.035,9.55,0.0,0.0,0.0,0.0,0.0,0.0,0.0,0.0,0.0
1576104152622420933,39838,1576104152621756315,,0.0,0.0,0.0,0.0,0.0,0.0,0.0,0.0,0.0,0.0,0.0,0.0,0.0,0.008,-0.001,-0.0,0.0,0.0,0.0,0.0,0.0,0.0,0.0,0.0,0.0,0.328,0.162,10.15,0.0,0.0,0.0,0.0,0.0,0.0,0.0,0.0,0.0
1576104152623973129,39839,1576104152623375177,,0.0,0.0,0.0,0.0,0.0,0.0,0.0,0.0,0.0,0.0,0.0,0.0,0.0,0.005,-0.01,-0.0,0.0,0.0,0.0,0.0,0.0,0.0,0.0,0.0,0.0,0.153,0.117,9.44,0.0,0.0,0.0,0.0,0.0,0.0,0.0,0.0,0.0
1576104152627332614,39840,1576104152626614809,,0.0,0.0,0.0,0.0,0.0,0.0,0.0,0.0,0.0,0.0,0.0,0.0,0.0,0.005,0.008,-0.0,0.0,0.0,0.0,0.0,0.0,0.0,0.0,0.0,0.0,0.259,0.169,9.76,0.0,0.0,0.0,0.0,0.0,0.0,0.0,0.0,0.0
1576104152629453839,39841,1576104152628865957,,0.0,0.0,0.0,0.0,0.0,0.0,0.0,0.0,0.0,0.0,0.0,0.0,0.0,0.005,-0.001,-0.0,0.0,0.0,0.0,0.0,0.0,0.0,0.0,0.0,0.0,0.158,0.083,9.54,0.0,0.0,0.0,0.0,0.0,0.0,0.0,0.0,0.0
1576104152632738383,39842,1576104152632208108,,0.0,0.0,0.0,0.0,0.0,0.0,0.0,0.0,0.0,0.0,0.0,0.0,0.0,0.005,-0.0,-0.0,0.0,0.0,0.0,0.0,0.0,0.0,0.0,0.0,0.0,0.216,0.1,9.86,0.0,0.0,0.0,0.0,0.0,0.0,0.0,0.0,0.0
1576104152633390521,39843,1576104152632826089,,0.0,0.0,0.0,0.0,0.0,0.0,0.0,0.0,0.0,0.0,0.0,0.0,0.0,0.009,-0.001,-0.0,0.0,0.0,0.0,0.0,0.0,0.0,0.0,0.0,0.0,0.156,0.16,9.85,0.0,0.0,0.0,0.0,0.0,0.0,0.0,0.0,0.0
1576104152638431079,39844,1576104152637733459,,0.0,0.0,0.0,0.0,0.0,0.0,0.0,0.0,0.0,0.0,0.0,0.0,0.0,0.003,-0.0,0.0,0.0,0.0,0.0,0.0,0.0,0.0,0.0,0.0,0.0,0.163,0.083,9.68,0.0,0.0,0.0,0.0,0.0,0.0,0.0,0.0,0.0
1576104152640615869,39845,1576104152639948844,,0.0,0.0,0.0,0.0,0.0,0.0,0.0,0.0,0.0,0.0,0.0,0.0,0.0,0.005,-0.005,0.0,0.0,0.0,0.0,0.0,0.0,0.0,0.0,0.0,0.0,0.261,0.148,10.07,0.0,0.0,0.0,0.0,0.0,0.0,0.0,0.0,0.0
1576104152644770274,39846,1576104152643822669,,0.0,0.0,0.0,0.0,0.0,0.0,0.0,0.0,0.0,0.0,0.0,0.0,0.0,0.008,0.005,0.0,0.0,0.0,0.0,0.0,0.0,0.0,0.0,0.0,0.0,0.158,0.119,9.46,0.0,0.0,0.0,0.0,0.0,0.0,0.0,0.0,0.0
1576104152645396046,39847,1576104152644694805,,0.0,0.0,0.0,0.0,0.0,0.0,0.0,0.0,0.0,0.0,0.0,0.0,0.0,0.004,-0.005,0.0,0.0,0.0,0.0,0.0,0.0,0.0,0.0,0.0,0.0,0.235,0.124,9.77,0.0,0.0,0.0,0.0,0.0,0.0,0.0,0.0,0.0
1576104152649624572,39848,1576104152648887872,,0.0,0.0,0.0,0.0,0.0,0.0,0.0,0.0,0.0,0.0,0.0,0.0,0.0,-0.002,-0.006,0.0,0.0,0.0,0.0,0.0,0.0,0.0,0.0,0.0,0.0,0.22,0.038,9.81,0.0,0.0,0.0,0.0,0.0,0.0,0.0,0.0,0.0
1576104152652815063,39849,1576104152652147054,,0.0,0.0,0.0,0.0,0.0,0.0,0.0,0.0,0.0,0.0,0.0,0.0,0.0,0.004,-0.005,0.0,0.0,0.0,0.0,0.0,0.0,0.0,0.0,0.0,0.0,0.299,0.059,9.87,0.0,0.0,0.0,0.0,0.0,0.0,0.0,0.0,0.0
1576104152655158370,39850,1576104152654404163,,0.0,0.0,0.0,0.0,0.0,0.0,0.0,0.0,0.0,0.0,0.0,0.0,0.0,0.006,-0.001,0.0,0.0,0.0,0.0,0.0,0.0,0.0,0.0,0.0,0.0,0.254,0.071,9.66,0.0,0.0,0.0,0.0,0.0,0.0,0.0,0.0,0.0
1576104152659617825,39851,1576104152658853769,,0.0,0.0,0.0,0.0,0.0,0.0,0.0,0.0,0.0,0.0,0.0,0.0,0.0,0.0,0.001,0.0,0.0,0.0,0.0,0.0,0.0,0.0,0.0,0.0,0.0,0.278,-0.051,9.68,0.0,0.0,0.0,0.0,0.0,0.0,0.0,0.0,0.0
1576104152661824969,39852,1576104152661121129,,0.0,0.0,0.0,0.0,0.0,0.0,0.0,0.0,0.0,0.0,0.0,0.0,0.0,0.004,-0.005,0.0,0.0,0.0,0.0,0.0,0.0,0.0,0.0,0.0,0.0,0.383,0.028,9.86,0.0,0.0,0.0,0.0,0.0,0.0,0.0,0.0,0.0
1576104152665140301,39853,1576104152664433479,,0.0,0.0,0.0,0.0,0.0,0.0,0.0,0.0,0.0,0.0,0.0,0.0,0.0,0.006,0.003,0.0,0.0,0.0,0.0,0.0,0.0,0.0,0.0,0.0,0.0,0.302,0.086,9.55,0.0,0.0,0.0,0.0,0.0,0.0,0.0,0.0,0.0
1576104152668411946,39854,1576104152667721033,,0.0,0.0,0.0,0.0,0.0,0.0,0.0,0.0,0.0,0.0,0.0,0.0,0.0,0.0,-0.003,0.0,0.0,0.0,0.0,0.0,0.0,0.0,0.0,0.0,0.0,0.378,0.035,9.51,0.0,0.0,0.0,0.0,0.0,0.0,0.0,0.0,0.0
1576104152672035954,39855,1576104152671315431,,0.0,0.0,0.0,0.0,0.0,0.0,0.0,0.0,0.0,0.0,0.0,0.0,0.0,-0.003,-0.003,0.0,0.0,0.0,0.0,0.0,0.0,0.0,0.0,0.0,0.0,0.374,-0.039,9.66,0.0,0.0,0.0,0.0,0.0,0.0,0.0,0.0,0.0
1576104152676201779,39856,1576104152675508022,,0.0,0.0,0.0,0.0,0.0,0.0,0.0,0.0,0.0,0.0,0.0,0.0,0.0,0.0,0.002,0.0,0.0,0.0,0.0,0.0,0.0,0.0,0.0,0.0,0.0,0.369,0.066,9.63,0.0,0.0,0.0,0.0,0.0,0.0,0.0,0.0,0.0
1576104152677346066,39857,1576104152676641225,,0.0,0.0,0.0,0.0,0.0,0.0,0.0,0.0,0.0,0.0,0.0,0.0,0.0,0.001,-0.003,0.0,0.0,0.0,0.0,0.0,0.0,0.0,0.0,0.0,0.0,0.402,-0.08,9.61,0.0,0.0,0.0,0.0,0.0,0.0,0.0,0.0,0.0
1576104152685168053,39858,1576104152684203147,,0.0,0.0,0.0,0.0,0.0,0.0,0.0,0.0,0.0,0.0,0.0,0.0,0.0,-0.001,-0.0,0.01,0.0,0.0,0.0,0.0,0.0,0.0,0.0,0.0,0.0,0.402,-0.065,9.78,0.0,0.0,0.0,0.0,0.0,0.0,0.0,0.0,0.0
1576104152685271319,39859,1576104152684621572,,0.0,0.0,0.0,0.0,0.0,0.0,0.0,0.0,0.0,0.0,0.0,0.0,0.0,0.001,-0.0,0.0,0.0,0.0,0.0,0.0,0.0,0.0,0.0,0.0,0.0,0.448,-0.12,9.59,0.0,0.0,0.0,0.0,0.0,0.0,0.0,0.0,0.0
1576104152711576814,39860,1576104152710512638,,0.0,0.0,0.0,0.0,0.0,0.0,0.0,0.0,0.0,0.0,0.0,0.0,0.0,-0.001,-0.0,0.0,0.0,0.0,0.0,0.0,0.0,0.0,0.0,0.0,0.0,0.51,-0.168,9.65,0.0,0.0,0.0,0.0,0.0,0.0,0.0,0.0,0.0
1576104152713880659,39861,1576104152713301420,,0.0,0.0,0.0,0.0,0.0,0.0,0.0,0.0,0.0,0.0,0.0,0.0,0.0,0.0,0.001,0.0,0.0,0.0,0.0,0.0,0.0,0.0,0.0,0.0,0.0,0.524,-0.269,9.65,0.0,0.0,0.0,0.0,0.0,0.0,0.0,0.0,0.0
1576104152714362149,39862,1576104152713941097,,0.0,0.0,0.0,0.0,0.0,0.0,0.0,0.0,0.0,0.0,0.0,0.0,0.0,-0.001,-0.0,0.0,0.0,0.0,0.0,0.0,0.0,0.0,0.0,0.0,0.0,0.527,-0.271,9.61,0.0,0.0,0.0,0.0,0.0,0.0,0.0,0.0,0.0
1576104152715924706,39863,1576104152714677572,,0.0,0.0,0.0,0.0,0.0,0.0,0.0,0.0,0.0,0.0,0.0,0.0,0.0,-0.002,-0.003,0.0,0.0,0.0,0.0,0.0,0.0,0.0,0.0,0.0,0.0,0.51,-0.338,9.68,0.0,0.0,0.0,0.0,0.0,0.0,0.0,0.0,0.0
1576104152716046708,39864,1576104152715161323,,0.0,0.0,0.0,0.0,0.0,0.0,0.0,0.0,0.0,0.0,0.0,0.0,0.0,-0.001,0.001,0.01,0.0,0.0,0.0,0.0,0.0,0.0,0.0,0.0,0.0,0.486,-0.307,9.74,0.0,0.0,0.0,0.0,0.0,0.0,0.0,0.0,0.0
1576104152716288460,39865,1576104152715475559,,0.0,0.0,0.0,0.0,0.0,0.0,0.0,0.0,0.0,0.0,0.0,0.0,0.0,-0.002,0.002,0.0,0.0,0.0,0.0,0.0,0.0,0.0,0.0,0.0,0.0,0.486,-0.376,9.62,0.0,0.0,0.0,0.0,0.0,0.0,0.0,0.0,0.0
1576104152716617479,39866,1576104152716162919,,0.0,0.0,0.0,0.0,0.0,0.0,0.0,0.0,0.0,0.0,0.0,0.0,0.0,-0.001,0.001,0.0,0.0,0.0,0.0,0.0,0.0,0.0,0.0,0.0,0.0,0.393,-0.42,9.64,0.0,0.0,0.0,0.0,0.0,0.0,0.0,0.0,0.0
1576104152723288006,39867,1576104152722734689,,0.0,0.0,0.0,0.0,0.0,0.0,0.0,0.0,0.0,0.0,0.0,0.0,0.0,-0.002,0.001,0.0,0.0,0.0,0.0,0.0,0.0,0.0,0.0,0.0,0.0,0.321,-0.408,9.68,0.0,0.0,0.0,0.0,0.0,0.0,0.0,0.0,0.0
1576104152765835943,39868,1576104152764844179,,0.0,0.0,0.0,0.0,0.0,0.0,0.0,0.0,0.0,0.0,0.0,0.0,0.0,0.0,0.001,0.0,0.0,0.0,0.0,0.0,0.0,0.0,0.0,0.0,0.0,0.304,-0.422,9.67,0.0,0.0,0.0,0.0,0.0,0.0,0.0,0.0,0.0
1576104152766579727,39869,1576104152765448331,,0.0,0.0,0.0,0.0,0.0,0.0,0.0,0.0,0.0,0.0,0.0,0.0,0.0,-0.007,0.001,0.01,0.0,0.0,0.0,0.0,0.0,0.0,0.0,0.0,0.0,0.271,-0.472,9.76,0.0,0.0,0.0,0.0,0.0,0.0,0.0,0.0,0.0
1576104152766633975,39870,1576104152766089677,,0.0,0.0,0.0,0.0,0.0,0.0,0.0,0.0,0.0,0.0,0.0,0.0,0.0,-0.003,-0.0,0.0,0.0,0.0,0.0,0.0,0.0,0.0,0.0,0.0,0.0,0.254,-0.542,9.77,0.0,0.0,0.0,0.0,0.0,0.0,0.0,0.0,0.0
1576104152767510317,39871,1576104152766663789,,0.0,0.0,0.0,0.0,0.0,0.0,0.0,0.0,0.0,0.0,0.0,0.0,0.0,-0.001,-0.0,0.0,0.0,0.0,0.0,0.0,0.0,0.0,0.0,0.0,0.0,0.23,-0.551,9.76,0.0,0.0,0.0,0.0,0.0,0.0,0.0,0.0,0.0
1576104152767538966,39872,1576104152767091274,,0.0,0.0,0.0,0.0,0.0,0.0,0.0,0.0,0.0,0.0,0.0,0.0,0.0,-0.001,-0.0,0.0,0.0,0.0,0.0,0.0,0.0,0.0,0.0,0.0,0.0,0.196,-0.585,9.71,0.0,0.0,0.0,0.0,0.0,0.0,0.0,0.0,0.0
1576104152768133532,39873,1576104152767636775,,0.0,0.0,0.0,0.0,0.0,0.0,0.0,0.0,0.0,0.0,0.0,0.0,0.0,-0.001,-0.0,0.0,0.0,0.0,0.0,0.0,0.0,0.0,0.0,0.0,0.0,0.22,-0.599,9.68,0.0,0.0,0.0,0.0,0.0,0.0,0.0,0.0,0.0
1576104152768898283,39874,1576104152768412590,,0.0,0.0,0.0,0.0,0.0,0.0,0.0,0.0,0.0,0.0,0.0,0.0,0.0,0.0,-0.003,0.0,0.0,0.0,0.0,0.0,0.0,0.0,0.0,0.0,0.0,0.256,-0.712,9.69,0.0,0.0,0.0,0.0,0.0,0.0,0.0,0.0,0.0
1576104152769388852,39875,1576104152768960475,,0.0,0.0,0.0,0.0,0.0,0.0,0.0,0.0,0.0,0.0,0.0,0.0,0.0,-0.002,-0.001,0.0,0.0,0.0,0.0,0.0,0.0,0.0,0.0,0.0,0.0,0.285,-0.767,9.69,0.0,0.0,0.0,0.0,0.0,0.0,0.0,0.0,0.0
1576104152769922148,39876,1576104152769518375,,0.0,0.0,0.0,0.0,0.0,0.0,0.0,0.0,0.0,0.0,0.0,0.0,0.0,-0.001,-0.003,0.0,0.0,0.0,0.0,0.0,0.0,0.0,0.0,0.0,0.0,0.343,-0.74,9.73,0.0,0.0,0.0,0.0,0.0,0.0,0.0,0.0,0.0
1576104152770314772,39877,1576104152769927024,,0.0,0.0,0.0,0.0,0.0,0.0,0.0,0.0,0.0,0.0,0.0,0.0,0.0,0.0,-0.001,0.0,0.0,0.0,0.0,0.0,0.0,0.0,0.0,0.0,0.0,0.347,-0.75,9.72,0.0,0.0,0.0,0.0,0.0,0.0,0.0,0.0,0.0
1576104152770664936,39878,1576104152770368576,,0.0,0.0,0.0,0.0,0.0,0.0,0.0,0.0,0.0,0.0,0.0,0.0,0.0,0.001,-0.001,0.0,0.0,0.0,0.0,0.0,0.0,0.0,0.0,0.0,0.0,0.359,-0.745,9.67,0.0,0.0,0.0,0.0,0.0,0.0,0.0,0.0,0.0
1576104152771715545,39879,1576104152770850658,,0.0,0.0,0.0,0.0,0.0,0.0,0.0,0.0,0.0,0.0,0.0,0.0,0.0,0.001,-0.001,0.0,0.0,0.0,0.0,0.0,0.0,0.0,0.0,0.0,0.0,0.393,-0.74,9.71,0.0,0.0,0.0,0.0,0.0,0.0,0.0,0.0,0.0
1576104152772112506,39880,1576104152771161317,,0.0,0.0,0.0,0.0,0.0,0.0,0.0,0.0,0.0,0.0,0.0,0.0,0.0,0.003,-0.001,0.0,0.0,0.0,0.0,0.0,0.0,0.0,0.0,0.0,0.0,0.417,-0.728,9.7,0.0,0.0,0.0,0.0,0.0,0.0,0.0,0.0,0.0
1576104152772294319,39881,1576104152771419763,,0.0,0.0,0.0,0.0,0.0,0.0,0.0,0.0,0.0,0.0,0.0,0.0,0.0,0.0,-0.001,0.0,0.0,0.0,0.0,0.0,0.0,0.0,0.0,0.0,0.0,0.364,-0.704,9.65,0.0,0.0,0.0,0.0,0.0,0.0,0.0,0.0,0.0
1576104152772802526,39882,1576104152771778345,,0.0,0.0,0.0,0.0,0.0,0.0,0.0,0.0,0.0,0.0,0.0,0.0,0.0,0.001,-0.005,0.0,0.0,0.0,0.0,0.0,0.0,0.0,0.0,0.0,0.0,0.436,-0.716,9.94,0.0,0.0,0.0,0.0,0.0,0.0,0.0,0.0,0.0
1576104152772979787,39883,1576104152772340059,,0.0,0.0,0.0,0.0,0.0,0.0,0.0,0.0,0.0,0.0,0.0,0.0,0.0,0.006,-0.001,0.0,0.0,0.0,0.0,0.0,0.0,0.0,0.0,0.0,0.0,0.46,-0.654,9.66,0.0,0.0,0.0,0.0,0.0,0.0,0.0,0.0,0.0
1576104152773340813,39884,1576104152772597312,,0.0,0.0,0.0,0.0,0.0,0.0,0.0,0.0,0.0,0.0,0.0,0.0,0.0,0.005,-0.008,0.0,0.0,0.0,0.0,0.0,0.0,0.0,0.0,0.0,0.0,0.419,-0.59,10.05,0.0,0.0,0.0,0.0,0.0,0.0,0.0,0.0,0.0
1576104152773519068,39885,1576104152773129463,,0.0,0.0,0.0,0.0,0.0,0.0,0.0,0.0,0.0,0.0,0.0,0.0,0.0,0.003,-0.0,0.0,0.0,0.0,0.0,0.0,0.0,0.0,0.0,0.0,0.0,0.429,-0.592,9.85,0.0,0.0,0.0,0.0,0.0,0.0,0.0,0.0,0.0
1576104152773869196,39886,1576104152773482561,,0.0,0.0,0.0,0.0,0.0,0.0,0.0,0.0,0.0,0.0,0.0,0.0,0.0,0.004,-0.0,0.0,0.0,0.0,0.0,0.0,0.0,0.0,0.0,0.0,0.0,0.405,-0.585,9.66,0.0,0.0,0.0,0.0,0.0,0.0,0.0,0.0,0.0
1576104152778086365,39887,1576104152777544021,,0.0,0.0,0.0,0.0,0.0,0.0,0.0,0.0,0.0,0.0,0.0,0.0,0.0,0.006,-0.004,0.0,0.0,0.0,0.0,0.0,0.0,0.0,0.0,0.0,0.0,0.45,-0.597,9.62,0.0,0.0,0.0,0.0,0.0,0.0,0.0,0.0,0.0
1576104152782606182,39888,1576104152782085657,,0.0,0.0,0.0,0.0,0.0,0.0,0.0,0.0,0.0,0.0,0.0,0.0,0.0,0.004,-0.0,0.0,0.0,0.0,0.0,0.0,0.0,0.0,0.0,0.0,0.0,0.469,-0.625,9.54,0.0,0.0,0.0,0.0,0.0,0.0,0.0,0.0,0.0
1576104152784925354,39889,1576104152784341812,,0.0,0.0,0.0,0.0,0.0,0.0,0.0,0.0,0.0,0.0,0.0,0.0,0.0,0.001,-0.001,0.0,0.0,0.0,0.0,0.0,0.0,0.0,0.0,0.0,0.0,0.479,-0.616,9.58,0.0,0.0,0.0,0.0,0.0,0.0,0.0,0.0,0.0
1576104152810387672,39890,1576104152809767723,,0.0,0.0,0.0,0.0,0.0,0.0,0.0,0.0,0.0,0.0,0.0,0.0,0.0,0.004,0.001,0.0,0.0,0.0,0.0,0.0,0.0,0.0,0.0,0.0,0.0,0.433,-0.599,9.55,0.0,0.0,0.0,0.0,0.0,0.0,0.0,0.0,0.0
1576104152810738887,39891,1576104152810319423,,0.0,0.0,0.0,0.0,0.0,0.0,0.0,0.0,0.0,0.0,0.0,0.0,0.0,0.001,0.001,0.0,0.0,0.0,0.0,0.0,0.0,0.0,0.0,0.0,0.0,0.381,-0.59,9.63,0.0,0.0,0.0,0.0,0.0,0.0,0.0,0.0,0.0
1576104152813429326,39892,1576104152812753677,,0.0,0.0,0.0,0.0,0.0,0.0,0.0,0.0,0.0,0.0,0.0,0.0,0.0,0.0,-0.001,0.0,0.0,0.0,0.0,0.0,0.0,0.0,0.0,0.0,0.0,0.333,-0.551,9.64,0.0,0.0,0.0,0.0,0.0,0.0,0.0,0.0,0.0
1576104152813630293,39893,1576104152813119173,,0.0,0.0,0.0,0.0,0.0,0.0,0.0,0.0,0.0,0.0,0.0,0.0,0.0,0.003,0.001,-0.0,0.0,0.0,0.0,0.0,0.0,0.0,0.0,0.0,0.0,0.352,-0.527,9.61,0.0,0.0,0.0,0.0,0.0,0.0,0.0,0.0,0.0
1576104152814253419,39894,1576104152813848257,,0.0,0.0,0.0,0.0,0.0,0.0,0.0,0.0,0.0,0.0,0.0,0.0,0.0,0.001,0.001,0.0,0.0,0.0,0.0,0.0,0.0,0.0,0.0,0.0,0.0,0.278,-0.59,9.51,0.0,0.0,0.0,0.0,0.0,0.0,0.0,0.0,0.0
1576104152814720332,39895,1576104152814366817,,0.0,0.0,0.0,0.0,0.0,0.0,0.0,0.0,0.0,0.0,0.0,0.0,0.0,-0.001,0.001,0.0,0.0,0.0,0.0,0.0,0.0,0.0,0.0,0.0,0.0,0.347,-0.575,9.77,0.0,0.0,0.0,0.0,0.0,0.0,0.0,0.0,0.0
1576104152815103148,39896,1576104152814722776,,0.0,0.0,0.0,0.0,0.0,0.0,0.0,0.0,0.0,0.0,0.0,0.0,0.0,-0.002,0.005,0.0,0.0,0.0,0.0,0.0,0.0,0.0,0.0,0.0,0.0,0.381,-0.611,9.63,0.0,0.0,0.0,0.0,0.0,0.0,0.0,0.0,0.0
1576104152818761158,39897,1576104152818320751,,0.0,0.0,0.0,0.0,0.0,0.0,0.0,0.0,0.0,0.0,0.0,0.0,0.0,-0.003,-0.001,0.0,0.0,0.0,0.0,0.0,0.0,0.0,0.0,0.0,0.0,0.429,-0.719,10.11,0.0,0.0,0.0,0.0,0.0,0.0,0.0,0.0,0.0
1576104152822314173,39898,1576104152821805715,,0.0,0.0,0.0,0.0,0.0,0.0,0.0,0.0,0.0,0.0,0.0,0.0,0.0,0.001,0.001,0.0,0.0,0.0,0.0,0.0,0.0,0.0,0.0,0.0,0.0,0.366,-0.707,9.6,0.0,0.0,0.0,0.0,0.0,0.0,0.0,0.0,0.0
1576104152824528450,39899,1576104152824041128,,0.0,0.0,0.0,0.0,0.0,0.0,0.0,0.0,0.0,0.0,0.0,0.0,0.0,-0.001,-0.005,0.0,0.0,0.0,0.0,0.0,0.0,0.0,0.0,0.0,0.0,0.388,-0.731,9.67,0.0,0.0,0.0,0.0,0.0,0.0,0.0,0.0,0.0
1576104152830101483,39900,1576104152829518318,,0.0,0.0,0.0,0.0,0.0,0.0,0.0,0.0,0.0,0.0,0.0,0.0,0.0,0.004,-0.0,0.0,0.0,0.0,0.0,0.0,0.0,0.0,0.0,0.0,0.0,0.357,-0.74,9.46,0.0,0.0,0.0,0.0,0.0,0.0,0.0,0.0,0.0
1576104152833620112,39901,1576104152833133459,,0.0,0.0,0.0,0.0,0.0,0.0,0.0,0.0,0.0,0.0,0.0,0.0,0.0,0.005,-0.004,0.0,0.0,0.0,0.0,0.0,0.0,0.0,0.0,0.0,0.0,0.35,-0.764,9.66,0.0,0.0,0.0,0.0,0.0,0.0,0.0,0.0,0.0
1576104152834656035,39902,1576104152834159374,,0.0,0.0,0.0,0.0,0.0,0.0,0.0,0.0,0.0,0.0,0.0,0.0,0.0,0.004,-0.005,0.0,0.0,0.0,0.0,0.0,0.0,0.0,0.0,0.0,0.0,0.393,-0.748,9.55,0.0,0.0,0.0,0.0,0.0,0.0,0.0,0.0,0.0
1576104152840416394,39903,1576104152839762926,,0.0,0.0,0.0,0.0,0.0,0.0,0.0,0.0,0.0,0.0,0.0,0.0,0.0,0.003,0.001,0.0,0.0,0.0,0.0,0.0,0.0,0.0,0.0,0.0,0.0,0.328,-0.702,9.48,0.0,0.0,0.0,0.0,0.0,0.0,0.0,0.0,0.0
1576104152842558973,39904,1576104152841982364,,0.0,0.0,0.0,0.0,0.0,0.0,0.0,0.0,0.0,0.0,0.0,0.0,0.0,0.001,0.001,0.0,0.0,0.0,0.0,0.0,0.0,0.0,0.0,0.0,0.0,0.256,-0.654,9.64,0.0,0.0,0.0,0.0,0.0,0.0,0.0,0.0,0.0
1576104152845043998,39905,1576104152844252109,,0.0,0.0,0.0,0.0,0.0,0.0,0.0,0.0,0.0,0.0,0.0,0.0,0.0,0.0,-0.001,0.0,0.0,0.0,0.0,0.0,0.0,0.0,0.0,0.0,0.0,0.259,-0.628,9.8,0.0,0.0,0.0,0.0,0.0,0.0,0.0,0.0,0.0
1576104152847296032,39906,1576104152846540212,,0.0,0.0,0.0,0.0,0.0,0.0,0.0,0.0,0.0,0.0,0.0,0.0,0.0,-0.005,0.001,0.0,0.0,0.0,0.0,0.0,0.0,0.0,0.0,0.0,0.0,0.228,-0.63,9.82,0.0,0.0,0.0,0.0,0.0,0.0,0.0,0.0,0.0
1576104152849430276,39907,1576104152848773956,,0.0,0.0,0.0,0.0,0.0,0.0,0.0,0.0,0.0,0.0,0.0,0.0,0.0,-0.003,0.001,0.01,0.0,0.0,0.0,0.0,0.0,0.0,0.0,0.0,0.0,0.184,-0.688,9.95,0.0,0.0,0.0,0.0,0.0,0.0,0.0,0.0,0.0
1576104152856496799,39908,1576104152856026887,,0.0,0.0,0.0,0.0,0.0,0.0,0.0,0.0,0.0,0.0,0.0,0.0,0.0,-0.001,-0.004,0.0,0.0,0.0,0.0,0.0,0.0,0.0,0.0,0.0,0.0,0.24,-0.788,10.03,0.0,0.0,0.0,0.0,0.0,0.0,0.0,0.0,0.0
1576104152859982408,39909,1576104152859332799,,0.0,0.0,0.0,0.0,0.0,0.0,0.0,0.0,0.0,0.0,0.0,0.0,0.0,0.0,-0.004,0.0,0.0,0.0,0.0,0.0,0.0,0.0,0.0,0.0,0.0,0.285,-0.805,9.95,0.0,0.0,0.0,0.0,0.0,0.0,0.0,0.0,0.0
1576104152860980342,39910,1576104152860331058,,0.0,0.0,0.0,0.0,0.0,0.0,0.0,0.0,0.0,0.0,0.0,0.0,0.0,-0.002,0.002,0.01,0.0,0.0,0.0,0.0,0.0,0.0,0.0,0.0,0.0,0.287,-0.831,9.64,0.0,0.0,0.0,0.0,0.0,0.0,0.0,0.0,0.0
1576104152913138320,39911,1576104152912029266,,0.0,0.0,0.0,0.0,0.0,0.0,0.0,0.0,0.0,0.0,0.0,0.0,0.0,-0.007,0.002,0.0,0.0,0.0,0.0,0.0,0.0,0.0,0.0,0.0,0.0,0.254,-0.807,9.4,0.0,0.0,0.0,0.0,0.0,0.0,0.0,0.0,0.0
1576104152913170873,39912,1576104152912518501,,0.0,0.0,0.0,0.0,0.0,0.0,0.0,0.0,0.0,0.0,0.0,0.0,0.0,-0.007,-0.003,0.0,0.0,0.0,0.0,0.0,0.0,0.0,0.0,0.0,0.0,0.199,-0.86,9.56,0.0,0.0,0.0,0.0,0.0,0.0,0.0,0.0,0.0
1576104152913439762,39913,1576104152912820577,,0.0,0.0,0.0,0.0,0.0,0.0,0.0,0.0,0.0,0.0,0.0,0.0,0.0,-0.003,-0.005,0.0,0.0,0.0,0.0,0.0,0.0,0.0,0.0,0.0,0.0,0.216,-0.795,9.6,0.0,0.0,0.0,0.0,0.0,0.0,0.0,0.0,0.0
1576104152914049177,39914,1576104152913653850,,0.0,0.0,0.0,0.0,0.0,0.0,0.0,0.0,0.0,0.0,0.0,0.0,0.0,0.0,-0.001,0.01,0.0,0.0,0.0,0.0,0.0,0.0,0.0,0.0,0.0,0.326,-0.733,9.53,0.0,0.0,0.0,0.0,0.0,0.0,0.0,0.0,0.0
1576104152914429110,39915,1576104152914064884,,0.0,0.0,0.0,0.0,0.0,0.0,0.0,0.0,0.0,0.0,0.0,0.0,0.0,-0.001,0.001,0.0,0.0,0.0,0.0,0.0,0.0,0.0,0.0,0.0,0.0,0.386,-0.733,9.61,0.0,0.0,0.0,0.0,0.0,0.0,0.0,0.0,0.0
1576104152915167177,39916,1576104152914533615,,0.0,0.0,0.0,0.0,0.0,0.0,0.0,0.0,0.0,0.0,0.0,0.0,0.0,0.008,-0.0,0.0,0.0,0.0,0.0,0.0,0.0,0.0,0.0,0.0,0.0,0.474,-0.688,9.57,0.0,0.0,0.0,0.0,0.0,0.0,0.0,0.0,0.0
1576104152915419755,39917,1576104152914836645,,0.0,0.0,0.0,0.0,0.0,0.0,0.0,0.0,0.0,0.0,0.0,0.0,0.0,0.005,-0.001,0.01,0.0,0.0,0.0,0.0,0.0,0.0,0.0,0.0,0.0,0.501,-0.7,9.77,0.0,0.0,0.0,0.0,0.0,0.0,0.0,0.0,0.0
1576104152915705545,39918,1576104152915351867,,0.0,0.0,0.0,0.0,0.0,0.0,0.0,0.0,0.0,0.0,0.0,0.0,0.0,0.006,-0.005,0.0,0.0,0.0,0.0,0.0,0.0,0.0,0.0,0.0,0.0,0.546,-0.64,10.02,0.0,0.0,0.0,0.0,0.0,0.0,0.0,0.0,0.0
1576104152916067244,39919,1576104152915783643,,0.0,0.0,0.0,0.0,0.0,0.0,0.0,0.0,0.0,0.0,0.0,0.0,0.0,0.005,-0.004,0.0,0.0,0.0,0.0,0.0,0.0,0.0,0.0,0.0,0.0,0.594,-0.63,9.91,0.0,0.0,0.0,0.0,0.0,0.0,0.0,0.0,0.0
1576104152917049067,39920,1576104152916161298,,0.0,0.0,0.0,0.0,0.0,0.0,0.0,0.0,0.0,0.0,0.0,0.0,0.0,0.003,-0.0,0.0,0.0,0.0,0.0,0.0,0.0,0.0,0.0,0.0,0.0,0.551,-0.594,9.76,0.0,0.0,0.0,0.0,0.0,0.0,0.0,0.0,0.0
1576104152917117497,39921,1576104152916549682,,0.0,0.0,0.0,0.0,0.0,0.0,0.0,0.0,0.0,0.0,0.0,0.0,0.0,-0.003,-0.004,0.0,0.0,0.0,0.0,0.0,0.0,0.0,0.0,0.0,0.0,0.51,-0.635,9.45,0.0,0.0,0.0,0.0,0.0,0.0,0.0,0.0,0.0
1576104152917328175,39922,1576104152916793346,,0.0,0.0,0.0,0.0,0.0,0.0,0.0,0.0,0.0,0.0,0.0,0.0,0.0,-0.007,0.001,0.0,0.0,0.0,0.0,0.0,0.0,0.0,0.0,0.0,0.0,0.422,-0.659,9.57,0.0,0.0,0.0,0.0,0.0,0.0,0.0,0.0,0.0
1576104152917498458,39923,1576104152917137622,,0.0,0.0,0.0,0.0,0.0,0.0,0.0,0.0,0.0,0.0,0.0,0.0,0.0,-0.005,-0.001,0.0,0.0,0.0,0.0,0.0,0.0,0.0,0.0,0.0,0.0,0.445,-0.606,9.54,0.0,0.0,0.0,0.0,0.0,0.0,0.0,0.0,0.0
1576104152917954615,39924,1576104152917577505,,0.0,0.0,0.0,0.0,0.0,0.0,0.0,0.0,0.0,0.0,0.0,0.0,0.0,-0.001,-0.001,0.0,0.0,0.0,0.0,0.0,0.0,0.0,0.0,0.0,0.0,0.508,-0.623,9.98,0.0,0.0,0.0,0.0,0.0,0.0,0.0,0.0,0.0
1576104152918541611,39925,1576104152918165683,,0.0,0.0,0.0,0.0,0.0,0.0,0.0,0.0,0.0,0.0,0.0,0.0,0.0,-0.006,-0.003,0.0,0.0,0.0,0.0,0.0,0.0,0.0,0.0,0.0,0.0,0.354,-0.499,9.76,0.0,0.0,0.0,0.0,0.0,0.0,0.0,0.0,0.0
1576104152919079364,39926,1576104152918729543,,0.0,0.0,0.0,0.0,0.0,0.0,0.0,0.0,0.0,0.0,0.0,0.0,0.0,-0.011,-0.008,0.0,0.0,0.0,0.0,0.0,0.0,0.0,0.0,0.0,0.0,0.12,-0.463,9.15,0.0,0.0,0.0,0.0,0.0,0.0,0.0,0.0,0.0
1576104152919558971,39927,1576104152919218063,,0.0,0.0,0.0,0.0,0.0,0.0,0.0,0.0,0.0,0.0,0.0,0.0,0.0,-0.011,-0.004,0.0,0.0,0.0,0.0,0.0,0.0,0.0,0.0,0.0,0.0,-0.009,-0.477,9.16,0.0,0.0,0.0,0.0,0.0,0.0,0.0,0.0,0.0
1576104152920392007,39928,1576104152919770479,,0.0,0.0,0.0,0.0,0.0,0.0,0.0,0.0,0.0,0.0,0.0,0.0,0.0,0.001,-0.01,0.0,0.0,0.0,0.0,0.0,0.0,0.0,0.0,0.0,0.0,-0.031,-0.602,10.24,0.0,0.0,0.0,0.0,0.0,0.0,0.0,0.0,0.0
1576104152921671356,39929,1576104152920952796,,0.0,0.0,0.0,0.0,0.0,0.0,0.0,0.0,0.0,0.0,0.0,0.0,0.0,0.016,0.005,0.01,0.0,0.0,0.0,0.0,0.0,0.0,0.0,0.0,0.0,0.108,-0.621,10.81,0.0,0.0,0.0,0.0,0.0,0.0,0.0,0.0,0.0
1576104152924943512,39930,1576104152924323797,,0.0,0.0,0.0,0.0,0.0,0.0,0.0,0.0,0.0,0.0,0.0,0.0,0.0,0.009,0.006,0.0,0.0,0.0,0.0,0.0,0.0,0.0,0.0,0.0,0.0,0.362,-0.736,9.46,0.0,0.0,0.0,0.0,0.0,0.0,0.0,0.0,0.0
1576104152926144238,39931,1576104152925410032,,0.0,0.0,0.0,0.0,0.0,0.0,0.0,0.0,0.0,0.0,0.0,0.0,0.0,0.003,-0.012,0.0,0.0,0.0,0.0,0.0,0.0,0.0,0.0,0.0,0.0,0.496,-0.841,10.06,0.0,0.0,0.0,0.0,0.0,0.0,0.0,0.0,0.0
1576104152928345486,39932,1576104152927672147,,0.0,0.0,0.0,0.0,0.0,0.0,0.0,0.0,0.0,0.0,0.0,0.0,0.0,-0.002,-0.004,0.01,0.0,0.0,0.0,0.0,0.0,0.0,0.0,0.0,0.0,0.546,-0.865,10.12,0.0,0.0,0.0,0.0,0.0,0.0,0.0,0.0,0.0
1576104152931707999,39933,1576104152930936336,,0.0,0.0,0.0,0.0,0.0,0.0,0.0,0.0,0.0,0.0,0.0,0.0,0.0,-0.002,-0.001,0.0,0.0,0.0,0.0,0.0,0.0,0.0,0.0,0.0,0.0,0.374,-0.908,9.45,0.0,0.0,0.0,0.0,0.0,0.0,0.0,0.0,0.0
1576104152934732757,39934,1576104152933992862,,0.0,0.0,0.0,0.0,0.0,0.0,0.0,0.0,0.0,0.0,0.0,0.0,0.0,-0.005,-0.019,0.0,0.0,0.0,0.0,0.0,0.0,0.0,0.0,0.0,0.0,0.256,-0.939,10.31,0.0,0.0,0.0,0.0,0.0,0.0,0.0,0.0,0.0
1576104152939054796,39935,1576104152938388824,,0.0,0.0,0.0,0.0,0.0,0.0,0.0,0.0,0.0,0.0,0.0,0.0,0.0,0.01,-0.0,0.01,0.0,0.0,0.0,0.0,0.0,0.0,0.0,0.0,0.0,-0.026,-0.819,10.02,0.0,0.0,0.0,0.0,0.0,0.0,0.0,0.0,0.0
1576104152943256319,39936,1576104152942672014,,0.0,0.0,0.0,0.0,0.0,0.0,0.0,0.0,0.0,0.0,0.0,0.0,0.0,0.022,-0.01,0.0,0.0,0.0,0.0,0.0,0.0,0.0,0.0,0.0,0.0,0.043,-0.738,10.09,0.0,0.0,0.0,0.0,0.0,0.0,0.0,0.0,0.0
1576104152946340392,39937,1576104152945831537,,0.0,0.0,0.0,0.0,0.0,0.0,0.0,0.0,0.0,0.0,0.0,0.0,0.0,0.026,-0.005,0.0,0.0,0.0,0.0,0.0,0.0,0.0,0.0,0.0,0.0,-0.041,-0.659,9.47,0.0,0.0,0.0,0.0,0.0,0.0,0.0,0.0,0.0
1576104152951359918,39938,1576104152950730323,,0.0,0.0,0.0,0.0,0.0,0.0,0.0,0.0,0.0,0.0,0.0,0.0,0.0,0.003,-0.021,0.0,0.0,0.0,0.0,0.0,0.0,0.0,0.0,0.0,0.0,0.11,-0.7,8.77,0.0,0.0,0.0,0.0,0.0,0.0,0.0,0.0,0.0
1576104152952301793,39939,1576104152951752185,,0.0,0.0,0.0,0.0,0.0,0.0,0.0,0.0,0.0,0.0,0.0,0.0,0.0,0.0,-0.016,0.0,0.0,0.0,0.0,0.0,0.0,0.0,0.0,0.0,0.0,0.046,-0.609,8.74,0.0,0.0,0.0,0.0,0.0,0.0,0.0,0.0,0.0
1576104152954850329,39940,1576104152954171895,,0.0,0.0,0.0,0.0,0.0,0.0,0.0,0.0,0.0,0.0,0.0,0.0,0.0,-0.002,-0.006,0.0,0.0,0.0,0.0,0.0,0.0,0.0,0.0,0.0,0.0,-0.12,-0.489,8.48,0.0,0.0,0.0,0.0,0.0,0.0,0.0,0.0,0.0
1576104152959368360,39941,1576104152958692312,,0.0,0.0,0.0,0.0,0.0,0.0,0.0,0.0,0.0,0.0,0.0,0.0,0.0,-0.005,-0.01,0.02,0.0,0.0,0.0,0.0,0.0,0.0,0.0,0.0,0.0,0.038,-0.525,8.54,0.0,0.0,0.0,0.0,0.0,0.0,0.0,0.0,0.0
1576104152960341984,39942,1576104152959736585,,0.0,0.0,0.0,0.0,0.0,0.0,0.0,0.0,0.0,0.0,0.0,0.0,0.0,-0.003,0.001,0.0,0.0,0.0,0.0,0.0,0.0,0.0,0.0,0.0,0.0,0.211,-0.506,8.11,0.0,0.0,0.0,0.0,0.0,0.0,0.0,0.0,0.0
1576104152963040425,39943,1576104152962445020,,0.0,0.0,0.0,0.0,0.0,0.0,0.0,0.0,0.0,0.0,0.0,0.0,0.0,-0.003,0.005,0.0,0.0,0.0,0.0,0.0,0.0,0.0,0.0,0.0,0.0,0.383,-0.489,8.34,0.0,0.0,0.0,0.0,0.0,0.0,0.0,0.0,0.0
1576104152965780086,39944,1576104152965034961,,0.0,0.0,0.0,0.0,0.0,0.0,0.0,0.0,0.0,0.0,0.0,0.0,0.0,-0.003,0.01,0.0,0.0,0.0,0.0,0.0,0.0,0.0,0.0,0.0,0.0,0.694,-0.47,8.72,0.0,0.0,0.0,0.0,0.0,0.0,0.0,0.0,0.0
1576104152969248715,39945,1576104152968575954,,0.0,0.0,0.0,0.0,0.0,0.0,0.0,0.0,0.0,0.0,0.0,0.0,0.0,-0.007,0.01,0.0,0.0,0.0,0.0,0.0,0.0,0.0,0.0,0.0,0.0,1.135,-0.482,9.23,0.0,0.0,0.0,0.0,0.0,0.0,0.0,0.0,0.0
1576104152971899830,39946,1576104152971239566,,0.0,0.0,0.0,0.0,0.0,0.0,0.0,0.0,0.0,0.0,0.0,0.0,0.0,-0.008,0.003,0.01,0.0,0.0,0.0,0.0,0.0,0.0,0.0,0.0,0.0,1.42,-0.53,9.89,0.0,0.0,0.0,0.0,0.0,0.0,0.0,0.0,0.0
1576104152976607121,39947,1576104152975931882,,0.0,0.0,0.0,0.0,0.0,0.0,0.0,0.0,0.0,0.0,0.0,0.0,0.0,-0.009,0.003,-0.0,0.0,0.0,0.0,0.0,0.0,0.0,0.0,0.0,0.0,1.702,-0.587,10.27,0.0,0.0,0.0,0.0,0.0,0.0,0.0,0.0,0.0
1576104152977695324,39948,1576104152977042198,,0.0,0.0,0.0,0.0,0.0,0.0,0.0,0.0,0.0,0.0,0.0,0.0,0.0,-0.012,0.01,-0.0,0.0,0.0,0.0,0.0,0.0,0.0,0.0,0.0,0.0,1.688,-0.554,10.09,0.0,0.0,0.0,0.0,0.0,0.0,0.0,0.0,0.0
1576104152983821282,39949,1576104152983153581,,0.0,0.0,0.0,0.0,0.0,0.0,0.0,0.0,0.0,0.0,0.0,0.0,0.0,-0.003,0.019,-0.0,0.0,0.0,0.0,0.0,0.0,0.0,0.0,0.0,0.0,1.135,-0.606,10.2,0.0,0.0,0.0,0.0,0.0,0.0,0.0,0.0,0.0
1576104152985726210,39950,1576104152985092401,,0.0,0.0,0.0,0.0,0.0,0.0,0.0,0.0,0.0,0.0,0.0,0.0,0.0,0.006,0.01,-0.0,0.0,0.0,0.0,0.0,0.0,0.0,0.0,0.0,0.0,0.761,-0.544,11.24,0.0,0.0,0.0,0.0,0.0,0.0,0.0,0.0,0.0
1576104153010160090,39951,1576104153009400129,,0.0,0.0,0.0,0.0,0.0,0.0,0.0,0.0,0.0,0.0,0.0,0.0,0.0,0.001,0.005,-0.0,0.0,0.0,0.0,0.0,0.0,0.0,0.0,0.0,0.0,0.702,-0.436,11.19,0.0,0.0,0.0,0.0,0.0,0.0,0.0,0.0,0.0
1576104153016405844,39952,1576104153015080213,,0.0,0.0,0.0,0.0,0.0,0.0,0.0,0.0,0.0,0.0,0.0,0.0,0.0,-0.011,0.013,-0.02,0.0,0.0,0.0,0.0,0.0,0.0,0.0,0.0,0.0,0.618,-0.659,9.9,0.0,0.0,0.0,0.0,0.0,0.0,0.0,0.0,0.0
1576104153016453807,39953,1576104153015485763,,0.0,0.0,0.0,0.0,0.0,0.0,0.0,0.0,0.0,0.0,0.0,0.0,0.0,-0.007,-0.003,-0.0,0.0,0.0,0.0,0.0,0.0,0.0,0.0,0.0,0.0,0.613,-0.69,9.76,0.0,0.0,0.0,0.0,0.0,0.0,0.0,0.0,0.0
1576104153016649863,39954,1576104153015770435,,0.0,0.0,0.0,0.0,0.0,0.0,0.0,0.0,0.0,0.0,0.0,0.0,0.0,-0.008,-0.01,-0.0,0.0,0.0,0.0,0.0,0.0,0.0,0.0,0.0,0.0,0.522,-0.597,10.44,0.0,0.0,0.0,0.0,0.0,0.0,0.0,0.0,0.0
1576104153016865122,39955,1576104153016122341,,0.0,0.0,0.0,0.0,0.0,0.0,0.0,0.0,0.0,0.0,0.0,0.0,0.0,-0.014,0.006,-0.02,0.0,0.0,0.0,0.0,0.0,0.0,0.0,0.0,0.0,-0.278,-0.451,9.88,0.0,0.0,0.0,0.0,0.0,0.0,0.0,0.0,0.0
1576104153017909756,39956,1576104153016907215,,0.0,0.0,0.0,0.0,0.0,0.0,0.0,0.0,0.0,0.0,0.0,0.0,0.0,-0.025,0.012,-0.0,0.0,0.0,0.0,0.0,0.0,0.0,0.0,0.0,0.0,-0.531,-0.427,8.31,0.0,0.0,0.0,0.0,0.0,0.0,0.0,0.0,0.0
1576104153017958486,39957,1576104153017454862,,0.0,0.0,0.0,0.0,0.0,0.0,0.0,0.0,0.0,0.0,0.0,0.0,0.0,-0.019,-0.014,-0.0,0.0,0.0,0.0,0.0,0.0,0.0,0.0,0.0,0.0,-0.263,-0.405,9.35,0.0,0.0,0.0,0.0,0.0,0.0,0.0,0.0,0.0
1576104153018899777,39958,1576104153018303394,,0.0,0.0,0.0,0.0,0.0,0.0,0.0,0.0,0.0,0.0,0.0,0.0,0.0,0.003,0.007,-0.0,0.0,0.0,0.0,0.0,0.0,0.0,0.0,0.0,0.0,0.194,-0.623,10.15,0.0,0.0,0.0,0.0,0.0,0.0,0.0,0.0,0.0
1576104153019263091,39959,1576104153018742084,,0.0,0.0,0.0,0.0,0.0,0.0,0.0,0.0,0.0,0.0,0.0,0.0,0.0,0.008,0.014,-0.0,0.0,0.0,0.0,0.0,0.0,0.0,0.0,0.0,0.0,0.388,-0.671,10.02,0.0,0.0,0.0,0.0,0.0,0.0,0.0,0.0,0.0
1576104153026447980,39960,1576104153025931835,,0.0,0.0,0.0,0.0,0.0,0.0,0.0,0.0,0.0,0.0,0.0,0.0,0.0,-0.003,-0.012,0.0,0.0,0.0,0.0,0.0,0.0,0.0,0.0,0.0,0.0,0.414,-0.664,8.35,0.0,0.0,0.0,0.0,0.0,0.0,0.0,0.0,0.0
1576104153027869196,39961,1576104153027403831,,0.0,0.0,0.0,0.0,0.0,0.0,0.0,0.0,0.0,0.0,0.0,0.0,0.0,0.004,-0.008,0.0,0.0,0.0,0.0,0.0,0.0,0.0,0.0,0.0,0.0,0.249,-0.812,11.03,0.0,0.0,0.0,0.0,0.0,0.0,0.0,0.0,0.0
1576104153077588484,39962,1576104153076918840,,0.0,0.0,0.0,0.0,0.0,0.0,0.0,0.0,0.0,0.0,0.0,0.0,0.0,0.012,-0.004,0.0,0.0,0.0,0.0,0.0,0.0,0.0,0.0,0.0,0.0,0.28,-0.707,10.94,0.0,0.0,0.0,0.0,0.0,0.0,0.0,0.0,0.0
1576104153079169947,39963,1576104153077855348,,0.0,0.0,0.0,0.0,0.0,0.0,0.0,0.0,0.0,0.0,0.0,0.0,0.0,-0.003,0.013,-0.0,0.0,0.0,0.0,0.0,0.0,0.0,0.0,0.0,0.0,0.601,-0.477,8.87,0.0,0.0,0.0,0.0,0.0,0.0,0.0,0.0,0.0
1576104153080397819,39964,1576104153078286170,,0.0,0.0,0.0,0.0,0.0,0.0,0.0,0.0,0.0,0.0,0.0,0.0,0.0,-0.017,0.005,0.0,0.0,0.0,0.0,0.0,0.0,0.0,0.0,0.0,0.0,0.608,-0.621,9.44,0.0,0.0,0.0,0.0,0.0,0.0,0.0,0.0,0.0
1576104153080454831,39965,1576104153078640937,,0.0,0.0,0.0,0.0,0.0,0.0,0.0,0.0,0.0,0.0,0.0,0.0,0.0,-0.019,-0.0,0.0,0.0,0.0,0.0,0.0,0.0,0.0,0.0,0.0,0.0,0.503,-0.439,10.13,0.0,0.0,0.0,0.0,0.0,0.0,0.0,0.0,0.0
1576104153080475752,39966,1576104153079230785,,0.0,0.0,0.0,0.0,0.0,0.0,0.0,0.0,0.0,0.0,0.0,0.0,0.0,-0.019,0.013,0.0,0.0,0.0,0.0,0.0,0.0,0.0,0.0,0.0,0.0,0.216,-0.221,9.76,0.0,0.0,0.0,0.0,0.0,0.0,0.0,0.0,0.0
1576104153080512693,39967,1576104153079631328,,0.0,0.0,0.0,0.0,0.0,0.0,0.0,0.0,0.0,0.0,0.0,0.0,0.0,-0.022,-0.0,0.0,0.0,0.0,0.0,0.0,0.0,0.0,0.0,0.0,0.0,0.261,-0.372,10.44,0.0,0.0,0.0,0.0,0.0,0.0,0.0,0.0,0.0
1576104153080524347,39968,1576104153079960584,,0.0,0.0,0.0,0.0,0.0,0.0,0.0,0.0,0.0,0.0,0.0,0.0,0.0,-0.018,0.005,0.0,0.0,0.0,0.0,0.0,0.0,0.0,0.0,0.0,0.0,0.556,-0.326,9.76,0.0,0.0,0.0,0.0,0.0,0.0,0.0,0.0,0.0
1576104153081057676,39969,1576104153080571413,,0.0,0.0,0.0,0.0,0.0,0.0,0.0,0.0,0.0,0.0,0.0,0.0,0.0,-0.006,0.021,0.0,0.0,0.0,0.0,0.0,0.0,0.0,0.0,0.0,0.0,0.584,-0.343,8.86,0.0,0.0,0.0,0.0,0.0,0.0,0.0,0.0,0.0
1576104153081627584,39970,1576104153081174850,,0.0,0.0,0.0,0.0,0.0,0.0,0.0,0.0,0.0,0.0,0.0,0.0,0.0,-0.001,0.01,0.0,0.0,0.0,0.0,0.0,0.0,0.0,0.0,0.0,0.0,0.539,-0.338,8.99,0.0,0.0,0.0,0.0,0.0,0.0,0.0,0.0,0.0
1576104153082060283,39971,1576104153081717014,,0.0,0.0,0.0,0.0,0.0,0.0,0.0,0.0,0.0,0.0,0.0,0.0,0.0,-0.003,0.003,0.0,0.0,0.0,0.0,0.0,0.0,0.0,0.0,0.0,0.0,0.381,-0.429,8.96,0.0,0.0,0.0,0.0,0.0,0.0,0.0,0.0,0.0
1576104153082502829,39972,1576104153082081794,,0.0,0.0,0.0,0.0,0.0,0.0,0.0,0.0,0.0,0.0,0.0,0.0,0.0,0.001,0.001,0.0,0.0,0.0,0.0,0.0,0.0,0.0,0.0,0.0,0.0,0.177,-0.376,8.82,0.0,0.0,0.0,0.0,0.0,0.0,0.0,0.0,0.0
1576104153082915072,39973,1576104153082447290,,0.0,0.0,0.0,0.0,0.0,0.0,0.0,0.0,0.0,0.0,0.0,0.0,0.0,0.008,-0.008,0.0,0.0,0.0,0.0,0.0,0.0,0.0,0.0,0.0,0.0,-0.009,-0.343,9.67,0.0,0.0,0.0,0.0,0.0,0.0,0.0,0.0,0.0
1576104153083414460,39974,1576104153082833766,,0.0,0.0,0.0,0.0,0.0,0.0,0.0,0.0,0.0,0.0,0.0,0.0,0.0,0.017,-0.004,0.0,0.0,0.0,0.0,0.0,0.0,0.0,0.0,0.0,0.0,-0.167,-0.317,10.11,0.0,0.0,0.0,0.0,0.0,0.0,0.0,0.0,0.0
1576104153083792797,39975,1576104153083363056,,0.0,0.0,0.0,0.0,0.0,0.0,0.0,0.0,0.0,0.0,0.0,0.0,0.0,0.025,-0.006,0.01,0.0,0.0,0.0,0.0,0.0,0.0,0.0,0.0,0.0,-0.132,-0.216,10.3,0.0,0.0,0.0,0.0,0.0,0.0,0.0,0.0,0.0
1576104153084098367,39976,1576104153083696126,,0.0,0.0,0.0,0.0,0.0,0.0,0.0,0.0,0.0,0.0,0.0,0.0,0.0,0.015,0.022,0.0,0.0,0.0,0.0,0.0,0.0,0.0,0.0,0.0,0.0,-0.218,-0.116,8.39,0.0,0.0,0.0,0.0,0.0,0.0,0.0,0.0,0.0
1576104153084506743,39977,1576104153084151029,,0.0,0.0,0.0,0.0,0.0,0.0,0.0,0.0,0.0,0.0,0.0,0.0,0.0,-0.003,0.001,0.0,0.0,0.0,0.0,0.0,0.0,0.0,0.0,0.0,0.0,-0.213,-0.142,8.72,0.0,0.0,0.0,0.0,0.0,0.0,0.0,0.0,0.0
1576104153084915915,39978,1576104153084564447,,0.0,0.0,0.0,0.0,0.0,0.0,0.0,0.0,0.0,0.0,0.0,0.0,0.0,0.005,-0.027,0.0,0.0,0.0,0.0,0.0,0.0,0.0,0.0,0.0,0.0,-0.234,-0.149,11.0,0.0,0.0,0.0,0.0,0.0,0.0,0.0,0.0,0.0
1576104153085668519,39979,1576104153085095882,,0.0,0.0,0.0,0.0,0.0,0.0,0.0,0.0,0.0,0.0,0.0,0.0,0.0,-0.009,0.013,0.0,0.0,0.0,0.0,0.0,0.0,0.0,0.0,0.0,0.0,0.034,-0.218,9.83,0.0,0.0,0.0,0.0,0.0,0.0,0.0,0.0,0.0
1576104153086086274,39980,1576104153085509777,,0.0,0.0,0.0,0.0,0.0,0.0,0.0,0.0,0.0,0.0,0.0,0.0,0.0,-0.019,0.016,0.0,0.0,0.0,0.0,0.0,0.0,0.0,0.0,0.0,0.0,0.445,-0.336,9.58,0.0,0.0,0.0,0.0,0.0,0.0,0.0,0.0,0.0
1576104153108502050,39981,1576104153107944250,,0.0,0.0,0.0,0.0,0.0,0.0,0.0,0.0,0.0,0.0,0.0,0.0,0.0,-0.018,0.011,0.0,0.0,0.0,0.0,0.0,0.0,0.0,0.0,0.0,0.0,0.635,-0.487,10.03,0.0,0.0,0.0,0.0,0.0,0.0,0.0,0.0,0.0
1576104153110528600,39982,1576104153109860897,,0.0,0.0,0.0,0.0,0.0,0.0,0.0,0.0,0.0,0.0,0.0,0.0,0.0,-0.009,-0.008,0.0,0.0,0.0,0.0,0.0,0.0,0.0,0.0,0.0,0.0,0.814,-0.446,10.94,0.0,0.0,0.0,0.0,0.0,0.0,0.0,0.0,0.0
1576104153111295611,39983,1576104153110528945,,0.0,0.0,0.0,0.0,0.0,0.0,0.0,0.0,0.0,0.0,0.0,0.0,0.0,-0.012,0.005,0.01,0.0,0.0,0.0,0.0,0.0,0.0,0.0,0.0,0.0,0.694,-0.415,10.49,0.0,0.0,0.0,0.0,0.0,0.0,0.0,0.0,0.0
1576104153112249977,39984,1576104153111647605,,0.0,0.0,0.0,0.0,0.0,0.0,0.0,0.0,0.0,0.0,0.0,0.0,0.0,-0.018,0.017,0.0,0.0,0.0,0.0,0.0,0.0,0.0,0.0,0.0,0.0,0.512,-0.501,8.82,0.0,0.0,0.0,0.0,0.0,0.0,0.0,0.0,0.0
1576104153115451268,39985,1576104153114501237,,0.0,0.0,0.0,0.0,0.0,0.0,0.0,0.0,0.0,0.0,0.0,0.0,0.0,-0.001,-0.023,0.0,0.0,0.0,0.0,0.0,0.0,0.0,0.0,0.0,0.0,0.18,-0.214,8.32,0.0,0.0,0.0,0.0,0.0,0.0,0.0,0.0,0.0
1576104153115585001,39986,1576104153114906787,,0.0,0.0,0.0,0.0,0.0,0.0,0.0,0.0,0.0,0.0,0.0,0.0,0.0,-0.012,0.008,0.01,0.0,0.0,0.0,0.0,0.0,0.0,0.0,0.0,0.0,-0.218,-0.132,6.78,0.0,0.0,0.0,0.0,0.0,0.0,0.0,0.0,0.0
1576104153116020713,39987,1576104153115575790,,0.0,0.0,0.0,0.0,0.0,0.0,0.0,0.0,0.0,0.0,0.0,0.0,0.0,-0.011,-0.032,0.0,0.0,0.0,0.0,0.0,0.0,0.0,0.0,0.0,0.0,-0.014,-0.082,9.65,0.0,0.0,0.0,0.0,0.0,0.0,0.0,0.0,0.0
1576104153116493695,39988,1576104153116193532,,0.0,0.0,0.0,0.0,0.0,0.0,0.0,0.0,0.0,0.0,0.0,0.0,0.0,0.028,0.028,0.02,0.0,0.0,0.0,0.0,0.0,0.0,0.0,0.0,0.0,0.484,0.04,12.25,0.0,0.0,0.0,0.0,0.0,0.0,0.0,0.0,0.0
1576104153116869113,39989,1576104153116563558,,0.0,0.0,0.0,0.0,0.0,0.0,0.0,0.0,0.0,0.0,0.0,0.0,0.0,0.017,0.051,0.0,0.0,0.0,0.0,0.0,0.0,0.0,0.0,0.0,0.0,0.723,0.035,9.33,0.0,0.0,0.0,0.0,0.0,0.0,0.0,0.0,0.0
1576104153117488819,39990,1576104153116926670,,0.0,0.0,0.0,0.0,0.0,0.0,0.0,0.0,0.0,0.0,0.0,0.0,0.0,0.003,0.013,0.0,0.0,0.0,0.0,0.0,0.0,0.0,0.0,0.0,0.0,0.805,0.016,9.06,0.0,0.0,0.0,0.0,0.0,0.0,0.0,0.0,0.0
1576104153117744135,39991,1576104153117180585,,0.0,0.0,0.0,0.0,0.0,0.0,0.0,0.0,0.0,0.0,0.0,0.0,0.0,0.016,-0.02,0.0,0.0,0.0,0.0,0.0,0.0,0.0,0.0,0.0,0.0,0.862,0.244,10.74,0.0,0.0,0.0,0.0,0.0,0.0,0.0,0.0,0.0
1576104153122077624,39992,1576104153121585607,,0.0,0.0,0.0,0.0,0.0,0.0,0.0,0.0,0.0,0.0,0.0,0.0,0.0,0.0,0.014,0.02,0.0,0.0,0.0,0.0,0.0,0.0,0.0,0.0,0.0,0.273,0.356,9.67,0.0,0.0,0.0,0.0,0.0,0.0,0.0,0.0,0.0
1576104153123391707,39993,1576104153122766256,,0.0,0.0,0.0,0.0,0.0,0.0,0.0,0.0,0.0,0.0,0.0,0.0,0.0,-0.023,0.014,0.0,0.0,0.0,0.0,0.0,0.0,0.0,0.0,0.0,0.0,0.381,0.284,9.29,0.0,0.0,0.0,0.0,0.0,0.0,0.0,0.0,0.0
1576104153125654385,39994,1576104153125089883,,0.0,0.0,0.0,0.0,0.0,0.0,0.0,0.0,0.0,0.0,0.0,0.0,0.0,-0.022,-0.021,0.0,0.0,0.0,0.0,0.0,0.0,0.0,0.0,0.0,0.0,0.647,-0.025,9.74,0.0,0.0,0.0,0.0,0.0,0.0,0.0,0.0,0.0
1576104153128107792,39995,1576104153127427101,,0.0,0.0,0.0,0.0,0.0,0.0,0.0,0.0,0.0,0.0,0.0,0.0,0.0,-0.022,0.001,0.02,0.0,0.0,0.0,0.0,0.0,0.0,0.0,0.0,0.0,0.62,-0.106,10.67,0.0,0.0,0.0,0.0,0.0,0.0,0.0,0.0,0.0
1576104153131319275,39996,1576104153130587100,,0.0,0.0,0.0,0.0,0.0,0.0,0.0,0.0,0.0,0.0,0.0,0.0,0.0,-0.013,0.035,0.0,0.0,0.0,0.0,0.0,0.0,0.0,0.0,0.0,0.0,0.79,-0.056,9.39,0.0,0.0,0.0,0.0,0.0,0.0,0.0,0.0,0.0
1576104153132361693,39997,1576104153131681442,,0.0,0.0,0.0,0.0,0.0,0.0,0.0,0.0,0.0,0.0,0.0,0.0,0.0,-0.018,0.025,0.0,0.0,0.0,0.0,0.0,0.0,0.0,0.0,0.0,0.0,0.726,-0.195,9.29,0.0,0.0,0.0,0.0,0.0,0.0,0.0,0.0,0.0
1576104153135640843,39998,1576104153135064840,,0.0,0.0,0.0,0.0,0.0,0.0,0.0,0.0,0.0,0.0,0.0,0.0,0.0,0.001,0.016,0.0,0.0,0.0,0.0,0.0,0.0,0.0,0.0,0.0,0.0,0.582,-0.3,9.35,0.0,0.0,0.0,0.0,0.0,0.0,0.0,0.0,0.0
1576104153137896329,39999,1576104153137257099,,0.0,0.0,0.0,0.0,0.0,0.0,0.0,0.0,0.0,0.0,0.0,0.0,0.0,0.005,0.019,0.01,0.0,0.0,0.0,0.0,0.0,0.0,0.0,0.0,0.0,0.163,-0.092,8.77,0.0,0.0,0.0,0.0,0.0,0.0,0.0,0.0,0.0
1576104153140032916,40000,1576104153139525651,,0.0,0.0,0.0,0.0,0.0,0.0,0.0,0.0,0.0,0.0,0.0,0.0,0.0,-0.011,-0.009,0.0,0.0,0.0,0.0,0.0,0.0,0.0,0.0,0.0,0.0,0.058,-0.25,8.9,0.0,0.0,0.0,0.0,0.0,0.0,0.0,0.0,0.0
1576104153142453634,40001,1576104153141936063,,0.0,0.0,0.0,0.0,0.0,0.0,0.0,0.0,0.0,0.0,0.0,0.0,0.0,-0.002,-0.036,0.0,0.0,0.0,0.0,0.0,0.0,0.0,0.0,0.0,0.0,0.173,-0.331,10.75,0.0,0.0,0.0,0.0,0.0,0.0,0.0,0.0,0.0
1576104153146365633,40002,1576104153145683288,,0.0,0.0,0.0,0.0,0.0,0.0,0.0,0.0,0.0,0.0,0.0,0.0,0.0,0.011,0.001,0.0,0.0,0.0,0.0,0.0,0.0,0.0,0.0,0.0,0.0,0.323,-0.187,10.3,0.0,0.0,0.0,0.0,0.0,0.0,0.0,0.0,0.0
1576104153147396766,40003,1576104153146695137,,0.0,0.0,0.0,0.0,0.0,0.0,0.0,0.0,0.0,0.0,0.0,0.0,0.0,0.006,0.021,0.0,0.0,0.0,0.0,0.0,0.0,0.0,0.0,0.0,0.0,0.259,-0.274,9.91,0.0,0.0,0.0,0.0,0.0,0.0,0.0,0.0,0.0
1576104153151392039,40004,1576104153150793075,,0.0,0.0,0.0,0.0,0.0,0.0,0.0,0.0,0.0,0.0,0.0,0.0,0.0,0.009,0.021,0.02,0.0,0.0,0.0,0.0,0.0,0.0,0.0,0.0,0.0,0.137,-0.309,9.9,0.0,0.0,0.0,0.0,0.0,0.0,0.0,0.0,0.0
1576104153154669064,40005,1576104153154134273,,0.0,0.0,0.0,0.0,0.0,0.0,0.0,0.0,0.0,0.0,0.0,0.0,0.0,0.0,0.034,0.0,0.0,0.0,0.0,0.0,0.0,0.0,0.0,0.0,0.0,-0.141,-0.245,9.59,0.0,0.0,0.0,0.0,0.0,0.0,0.0,0.0,0.0
1576104153156686851,40006,1576104153156025648,,0.0,0.0,0.0,0.0,0.0,0.0,0.0,0.0,0.0,0.0,0.0,0.0,0.0,-0.005,0.021,0.0,0.0,0.0,0.0,0.0,0.0,0.0,0.0,0.0,0.0,-0.146,0.031,8.75,0.0,0.0,0.0,0.0,0.0,0.0,0.0,0.0,0.0
1576104153157646814,40007,1576104153157135248,,0.0,0.0,0.0,0.0,0.0,0.0,0.0,0.0,0.0,0.0,0.0,0.0,0.0,-0.003,-0.01,0.0,0.0,0.0,0.0,0.0,0.0,0.0,0.0,0.0,0.0,0.05,0.167,9.79,0.0,0.0,0.0,0.0,0.0,0.0,0.0,0.0,0.0
1576104153164381978,40008,1576104153163714885,,0.0,0.0,0.0,0.0,0.0,0.0,0.0,0.0,0.0,0.0,0.0,0.0,0.0,-0.006,0.001,0.0,0.0,0.0,0.0,0.0,0.0,0.0,0.0,0.0,0.0,0.299,0.323,9.52,0.0,0.0,0.0,0.0,0.0,0.0,0.0,0.0,0.0
1576104153167250887,40009,1576104153166520833,,0.0,0.0,0.0,0.0,0.0,0.0,0.0,0.0,0.0,0.0,0.0,0.0,0.0,0.004,-0.01,0.0,0.0,0.0,0.0,0.0,0.0,0.0,0.0,0.0,0.0,0.496,0.205,9.73,0.0,0.0,0.0,0.0,0.0,0.0,0.0,0.0,0.0
1576104153169506322,40010,1576104153168819665,,0.0,0.0,0.0,0.0,0.0,0.0,0.0,0.0,0.0,0.0,0.0,0.0,0.0,-0.001,0.023,0.03,0.0,0.0,0.0,0.0,0.0,0.0,0.0,0.0,0.0,0.003,0.363,9.43,0.0,0.0,0.0,0.0,0.0,0.0,0.0,0.0,0.0
1576104153173932051,40011,1576104153173306226,,0.0,0.0,0.0,0.0,0.0,0.0,0.0,0.0,0.0,0.0,0.0,0.0,0.0,-0.011,-0.005,0.0,0.0,0.0,0.0,0.0,0.0,0.0,0.0,0.0,0.0,-0.376,0.347,10.3,0.0,0.0,0.0,0.0,0.0,0.0,0.0,0.0,0.0
1576104153220199950,40012,1576104153219183921,,0.0,0.0,0.0,0.0,0.0,0.0,0.0,0.0,0.0,0.0,0.0,0.0,0.0,-0.019,0.01,0.0,0.0,0.0,0.0,0.0,0.0,0.0,0.0,0.0,0.0,-0.103,0.291,9.12,0.0,0.0,0.0,0.0,0.0,0.0,0.0,0.0,0.0
1576104153220593154,40013,1576104153219697952,,0.0,0.0,0.0,0.0,0.0,0.0,0.0,0.0,0.0,0.0,0.0,0.0,0.0,-0.016,-0.0,0.03,0.0,0.0,0.0,0.0,0.0,0.0,0.0,0.0,0.0,0.335,0.248,8.98,0.0,0.0,0.0,0.0,0.0,0.0,0.0,0.0,0.0
1576104153221242940,40014,1576104153220195293,,0.0,0.0,0.0,0.0,0.0,0.0,0.0,0.0,0.0,0.0,0.0,0.0,0.0,-0.017,-0.016,0.0,0.0,0.0,0.0,0.0,0.0,0.0,0.0,0.0,0.0,0.534,0.157,10.35,0.0,0.0,0.0,0.0,0.0,0.0,0.0,0.0,0.0
1576104153221283695,40015,1576104153220772981,,0.0,0.0,0.0,0.0,0.0,0.0,0.0,0.0,0.0,0.0,0.0,0.0,0.0,-0.012,-0.014,0.0,0.0,0.0,0.0,0.0,0.0,0.0,0.0,0.0,0.0,0.563,0.122,10.24,0.0,0.0,0.0,0.0,0.0,0.0,0.0,0.0,0.0
1576104153222539490,40016,1576104153221309423,,0.0,0.0,0.0,0.0,0.0,0.0,0.0,0.0,0.0,0.0,0.0,0.0,0.0,0.003,-0.009,0.0,0.0,0.0,0.0,0.0,0.0,0.0,0.0,0.0,0.0,0.493,0.239,9.76,0.0,0.0,0.0,0.0,0.0,0.0,0.0,0.0,0.0
1576104153222579776,40017,1576104153221664428,,0.0,0.0,0.0,0.0,0.0,0.0,0.0,0.0,0.0,0.0,0.0,0.0,0.0,0.008,0.003,0.04,0.0,0.0,0.0,0.0,0.0,0.0,0.0,0.0,0.0,0.175,0.363,10.55,0.0,0.0,0.0,0.0,0.0,0.0,0.0,0.0,0.0
1576104153222617418,40018,1576104153221997261,,0.0,0.0,0.0,0.0,0.0,0.0,0.0,0.0,0.0,0.0,0.0,0.0,0.0,0.001,0.01,0.0,0.0,0.0,0.0,0.0,0.0,0.0,0.0,0.0,0.0,0.046,0.466,9.9,0.0,0.0,0.0,0.0,0.0,0.0,0.0,0.0,0.0
1576104153222883433,40019,1576104153222419738,,0.0,0.0,0.0,0.0,0.0,0.0,0.0,0.0,0.0,0.0,0.0,0.0,0.0,-0.009,0.014,0.0,0.0,0.0,0.0,0.0,0.0,0.0,0.0,0.0,0.0,-0.005,0.488,8.51,0.0,0.0,0.0,0.0,0.0,0.0,0.0,0.0,0.0
1576104153223907795,40020,1576104153223067760,,0.0,0.0,0.0,0.0,0.0,0.0,0.0,0.0,0.0,0.0,0.0,0.0,0.0,-0.007,-0.006,0.0,0.0,0.0,0.0,0.0,0.0,0.0,0.0,0.0,0.0,-0.098,0.615,8.09,0.0,0.0,0.0,0.0,0.0,0.0,0.0,0.0,0.0
1576104153223948043,40021,1576104153223396778,,0.0,0.0,0.0,0.0,0.0,0.0,0.0,0.0,0.0,0.0,0.0,0.0,0.0,-0.018,-0.008,0.04,0.0,0.0,0.0,0.0,0.0,0.0,0.0,0.0,0.0,0.129,0.569,9.1,0.0,0.0,0.0,0.0,0.0,0.0,0.0,0.0,0.0
