%time,field.header.seq,field.header.stamp,field.header.frame_id,field.orientation.x,field.orientation.y,field.orientation.z,field.orientation.w,field.orientation_covariance0,field.orientation_covariance1,field.orientation_covariance2,field.orientation_covariance3,field.orientation_covariance4,field.orientation_covariance5,field.orientation_covariance6,field.orientation_covariance7,field.orientation_covariance8,field.angular_velocity.x,field.angular_velocity.y,field.angular_velocity.z,field.angular_velocity_covariance0,field.angular_velocity_covariance1,field.angular_velocity_covariance2,field.angular_velocity_covariance3,field.angular_velocity_covariance4,field.angular_velocity_covariance5,field.angular_velocity_covariance6,field.angular_velocity_covariance7,field.angular_velocity_covariance8,field.linear_acceleration.x,field.linear_acceleration.y,field.linear_acceleration.z,field.linear_acceleration_covariance0,field.linear_acceleration_covariance1,field.linear_acceleration_covariance2,field.linear_acceleration_covariance3,field.linear_acceleration_covariance4,field.linear_acceleration_covariance5,field.linear_acceleration_covariance6,field.linear_acceleration_covariance7,field.linear_acceleration_covariance8
1576083331642306990,784,0,,0.0,0.0,0.0,0.0,0.0,0.0,0.0,0.0,0.0,0.0,0.0,0.0,0.0,-0.0,0.0,0.0,0.0,0.0,0.0,0.0,0.0,0.0,0.0,0.0,0.0,0.271,0.161,9.71,0.0,0.0,0.0,0.0,0.0,0.0,0.0,0.0,0.0
1576083331788464080,785,0,,0.0,0.0,0.0,0.0,0.0,0.0,0.0,0.0,0.0,0.0,0.0,0.0,0.0,-0.0,-0.0,0.0,0.0,0.0,0.0,0.0,0.0,0.0,0.0,0.0,0.0,0.218,0.28,9.71,0.0,0.0,0.0,0.0,0.0,0.0,0.0,0.0,0.0
1576083331834982095,786,0,,0.0,0.0,0.0,0.0,0.0,0.0,0.0,0.0,0.0,0.0,0.0,0.0,0.0,0.001,-0.0,0.0,0.0,0.0,0.0,0.0,0.0,0.0,0.0,0.0,0.0,0.164,0.239,10.03,0.0,0.0,0.0,0.0,0.0,0.0,0.0,0.0,0.0
1576083331897365873,787,0,,0.0,0.0,0.0,0.0,0.0,0.0,0.0,0.0,0.0,0.0,0.0,0.0,0.0,0.0,0.001,-0.0,0.0,0.0,0.0,0.0,0.0,0.0,0.0,0.0,0.0,0.167,0.242,9.83,0.0,0.0,0.0,0.0,0.0,0.0,0.0,0.0,0.0
1576083331991265941,788,0,,0.0,0.0,0.0,0.0,0.0,0.0,0.0,0.0,0.0,0.0,0.0,0.0,0.0,-0.0,-0.0,0.0,0.0,0.0,0.0,0.0,0.0,0.0,0.0,0.0,0.0,0.155,0.267,9.63,0.0,0.0,0.0,0.0,0.0,0.0,0.0,0.0,0.0
1576083332035305034,789,0,,0.0,0.0,0.0,0.0,0.0,0.0,0.0,0.0,0.0,0.0,0.0,0.0,0.0,0.001,-0.0,0.0,0.0,0.0,0.0,0.0,0.0,0.0,0.0,0.0,0.0,0.334,0.193,9.71,0.0,0.0,0.0,0.0,0.0,0.0,0.0,0.0,0.0
1576083332100293881,790,0,,0.0,0.0,0.0,0.0,0.0,0.0,0.0,0.0,0.0,0.0,0.0,0.0,0.0,-0.002,-0.0,-0.0,0.0,0.0,0.0,0.0,0.0,0.0,0.0,0.0,0.0,0.176,0.102,9.69,0.0,0.0,0.0,0.0,0.0,0.0,0.0,0.0,0.0
1576083332190286245,791,0,,0.0,0.0,0.0,0.0,0.0,0.0,0.0,0.0,0.0,0.0,0.0,0.0,0.0,0.003,-0.0,-0.0,0.0,0.0,0.0,0.0,0.0,0.0,0.0,0.0,0.0,0.166,0.408,9.88,0.0,0.0,0.0,0.0,0.0,0.0,0.0,0.0,0.0
1576083332234732084,792,0,,0.0,0.0,0.0,0.0,0.0,0.0,0.0,0.0,0.0,0.0,0.0,0.0,0.0,0.003,0.001,-0.0,0.0,0.0,0.0,0.0,0.0,0.0,0.0,0.0,0.0,0.121,0.371,9.76,0.0,0.0,0.0,0.0,0.0,0.0,0.0,0.0,0.0
1576083332302749661,793,0,,0.0,0.0,0.0,0.0,0.0,0.0,0.0,0.0,0.0,0.0,0.0,0.0,0.0,0.0,0.0,0.0,0.0,0.0,0.0,0.0,0.0,0.0,0.0,0.0,0.0,0.322,0.03,9.72,0.0,0.0,0.0,0.0,0.0,0.0,0.0,0.0,0.0
1576083332387753419,794,0,,0.0,0.0,0.0,0.0,0.0,0.0,0.0,0.0,0.0,0.0,0.0,0.0,0.0,-0.001,-0.001,0.0,0.0,0.0,0.0,0.0,0.0,0.0,0.0,0.0,0.0,0.224,0.327,9.67,0.0,0.0,0.0,0.0,0.0,0.0,0.0,0.0,0.0
1576083332439430764,795,0,,0.0,0.0,0.0,0.0,0.0,0.0,0.0,0.0,0.0,0.0,0.0,0.0,0.0,0.001,0.0,0.0,0.0,0.0,0.0,0.0,0.0,0.0,0.0,0.0,0.0,0.011,-0.008,9.69,0.0,0.0,0.0,0.0,0.0,0.0,0.0,0.0,0.0
1576083332513386866,796,0,,0.0,0.0,0.0,0.0,0.0,0.0,0.0,0.0,0.0,0.0,0.0,0.0,0.0,0.001,0.0,0.0,0.0,0.0,0.0,0.0,0.0,0.0,0.0,0.0,0.0,0.58,0.195,9.65,0.0,0.0,0.0,0.0,0.0,0.0,0.0,0.0,0.0
1576083332639691147,797,0,,0.0,0.0,0.0,0.0,0.0,0.0,0.0,0.0,0.0,0.0,0.0,0.0,0.0,0.001,0.002,0.01,0.0,0.0,0.0,0.0,0.0,0.0,0.0,0.0,0.0,0.056,0.471,9.64,0.0,0.0,0.0,0.0,0.0,0.0,0.0,0.0,0.0
1576083332791458912,798,0,,0.0,0.0,0.0,0.0,0.0,0.0,0.0,0.0,0.0,0.0,0.0,0.0,0.0,-0.001,0.001,-0.02,0.0,0.0,0.0,0.0,0.0,0.0,0.0,0.0,0.0,0.351,0.35,9.71,0.0,0.0,0.0,0.0,0.0,0.0,0.0,0.0,0.0
1576083332845812366,799,0,,0.0,0.0,0.0,0.0,0.0,0.0,0.0,0.0,0.0,0.0,0.0,0.0,0.0,-0.001,-0.002,-0.0,0.0,0.0,0.0,0.0,0.0,0.0,0.0,0.0,0.0,0.211,0.166,9.69,0.0,0.0,0.0,0.0,0.0,0.0,0.0,0.0,0.0
1576083332988691102,800,0,,0.0,0.0,0.0,0.0,0.0,0.0,0.0,0.0,0.0,0.0,0.0,0.0,0.0,0.002,-0.0,-0.0,0.0,0.0,0.0,0.0,0.0,0.0,0.0,0.0,0.0,0.181,-0.166,9.76,0.0,0.0,0.0,0.0,0.0,0.0,0.0,0.0,0.0
1576083333040117240,801,0,,0.0,0.0,0.0,0.0,0.0,0.0,0.0,0.0,0.0,0.0,0.0,0.0,0.0,0.002,-0.001,-0.0,0.0,0.0,0.0,0.0,0.0,0.0,0.0,0.0,0.0,0.13,-0.695,9.72,0.0,0.0,0.0,0.0,0.0,0.0,0.0,0.0,0.0
1576083333100799884,802,0,,0.0,0.0,0.0,0.0,0.0,0.0,0.0,0.0,0.0,0.0,0.0,0.0,0.0,0.004,-0.003,-0.01,0.0,0.0,0.0,0.0,0.0,0.0,0.0,0.0,0.0,0.246,-0.769,9.65,0.0,0.0,0.0,0.0,0.0,0.0,0.0,0.0,0.0
1576083333192871330,803,0,,0.0,0.0,0.0,0.0,0.0,0.0,0.0,0.0,0.0,0.0,0.0,0.0,0.0,0.006,0.001,-0.06,0.0,0.0,0.0,0.0,0.0,0.0,0.0,0.0,0.0,0.108,-1.089,9.86,0.0,0.0,0.0,0.0,0.0,0.0,0.0,0.0,0.0
1576083333233842935,804,0,,0.0,0.0,0.0,0.0,0.0,0.0,0.0,0.0,0.0,0.0,0.0,0.0,0.0,-0.005,0.004,-0.1,0.0,0.0,0.0,0.0,0.0,0.0,0.0,0.0,0.0,0.004,-0.755,9.6,0.0,0.0,0.0,0.0,0.0,0.0,0.0,0.0,0.0
1576083333301071699,805,0,,0.0,0.0,0.0,0.0,0.0,0.0,0.0,0.0,0.0,0.0,0.0,0.0,0.0,0.009,0.013,-0.12,0.0,0.0,0.0,0.0,0.0,0.0,0.0,0.0,0.0,-0.101,-0.966,9.15,0.0,0.0,0.0,0.0,0.0,0.0,0.0,0.0,0.0
1576083333389490624,806,0,,0.0,0.0,0.0,0.0,0.0,0.0,0.0,0.0,0.0,0.0,0.0,0.0,0.0,0.013,0.005,-0.02,0.0,0.0,0.0,0.0,0.0,0.0,0.0,0.0,0.0,-0.371,-0.478,9.15,0.0,0.0,0.0,0.0,0.0,0.0,0.0,0.0,0.0
1576083333435634457,807,0,,0.0,0.0,0.0,0.0,0.0,0.0,0.0,0.0,0.0,0.0,0.0,0.0,0.0,0.014,0.007,0.09,0.0,0.0,0.0,0.0,0.0,0.0,0.0,0.0,0.0,-0.066,-0.037,10.33,0.0,0.0,0.0,0.0,0.0,0.0,0.0,0.0,0.0
1576083333505511898,808,0,,0.0,0.0,0.0,0.0,0.0,0.0,0.0,0.0,0.0,0.0,0.0,0.0,0.0,0.025,-0.0,0.2,0.0,0.0,0.0,0.0,0.0,0.0,0.0,0.0,0.0,0.548,0.76,8.98,0.0,0.0,0.0,0.0,0.0,0.0,0.0,0.0,0.0
1576083333593481058,809,0,,0.0,0.0,0.0,0.0,0.0,0.0,0.0,0.0,0.0,0.0,0.0,0.0,0.0,0.028,-0.004,0.21,0.0,0.0,0.0,0.0,0.0,0.0,0.0,0.0,0.0,0.165,0.432,9.86,0.0,0.0,0.0,0.0,0.0,0.0,0.0,0.0,0.0
1576083333637470084,810,0,,0.0,0.0,0.0,0.0,0.0,0.0,0.0,0.0,0.0,0.0,0.0,0.0,0.0,0.009,-0.004,0.11,0.0,0.0,0.0,0.0,0.0,0.0,0.0,0.0,0.0,0.622,0.26,10.17,0.0,0.0,0.0,0.0,0.0,0.0,0.0,0.0,0.0
1576083333703917645,811,0,,0.0,0.0,0.0,0.0,0.0,0.0,0.0,0.0,0.0,0.0,0.0,0.0,0.0,-0.021,-0.021,0.02,0.0,0.0,0.0,0.0,0.0,0.0,0.0,0.0,0.0,0.824,-0.109,9.76,0.0,0.0,0.0,0.0,0.0,0.0,0.0,0.0,0.0
1576083333798984552,812,0,,0.0,0.0,0.0,0.0,0.0,0.0,0.0,0.0,0.0,0.0,0.0,0.0,0.0,0.009,-0.01,0.0,0.0,0.0,0.0,0.0,0.0,0.0,0.0,0.0,0.0,0.638,0.302,9.98,0.0,0.0,0.0,0.0,0.0,0.0,0.0,0.0,0.0
1576083333838922456,813,0,,0.0,0.0,0.0,0.0,0.0,0.0,0.0,0.0,0.0,0.0,0.0,0.0,0.0,0.017,0.002,0.04,0.0,0.0,0.0,0.0,0.0,0.0,0.0,0.0,0.0,0.357,0.243,10.0,0.0,0.0,0.0,0.0,0.0,0.0,0.0,0.0,0.0
1576083333905714692,814,0,,0.0,0.0,0.0,0.0,0.0,0.0,0.0,0.0,0.0,0.0,0.0,0.0,0.0,0.023,0.01,0.02,0.0,0.0,0.0,0.0,0.0,0.0,0.0,0.0,0.0,0.364,0.489,9.27,0.0,0.0,0.0,0.0,0.0,0.0,0.0,0.0,0.0
1576083333989098304,815,0,,0.0,0.0,0.0,0.0,0.0,0.0,0.0,0.0,0.0,0.0,0.0,0.0,0.0,0.002,-0.006,-0.01,0.0,0.0,0.0,0.0,0.0,0.0,0.0,0.0,0.0,0.21,0.739,9.99,0.0,0.0,0.0,0.0,0.0,0.0,0.0,0.0,0.0
1576083334043085718,816,0,,0.0,0.0,0.0,0.0,0.0,0.0,0.0,0.0,0.0,0.0,0.0,0.0,0.0,0.022,0.004,-0.03,0.0,0.0,0.0,0.0,0.0,0.0,0.0,0.0,0.0,0.463,1.031,10.52,0.0,0.0,0.0,0.0,0.0,0.0,0.0,0.0,0.0
1576083334190500010,817,0,,0.0,0.0,0.0,0.0,0.0,0.0,0.0,0.0,0.0,0.0,0.0,0.0,0.0,0.011,0.001,-0.05,0.0,0.0,0.0,0.0,0.0,0.0,0.0,0.0,0.0,-0.043,1.277,9.47,0.0,0.0,0.0,0.0,0.0,0.0,0.0,0.0,0.0
1576083334237885554,818,0,,0.0,0.0,0.0,0.0,0.0,0.0,0.0,0.0,0.0,0.0,0.0,0.0,0.0,0.005,0.001,-0.04,0.0,0.0,0.0,0.0,0.0,0.0,0.0,0.0,0.0,0.25,1.185,9.66,0.0,0.0,0.0,0.0,0.0,0.0,0.0,0.0,0.0
1576083334304841785,819,0,,0.0,0.0,0.0,0.0,0.0,0.0,0.0,0.0,0.0,0.0,0.0,0.0,0.0,0.007,0.003,-0.05,0.0,0.0,0.0,0.0,0.0,0.0,0.0,0.0,0.0,0.334,0.88,9.46,0.0,0.0,0.0,0.0,0.0,0.0,0.0,0.0,0.0
1576083334390575802,820,0,,0.0,0.0,0.0,0.0,0.0,0.0,0.0,0.0,0.0,0.0,0.0,0.0,0.0,0.037,0.0,-0.09,0.0,0.0,0.0,0.0,0.0,0.0,0.0,0.0,0.0,-0.489,0.996,9.99,0.0,0.0,0.0,0.0,0.0,0.0,0.0,0.0,0.0
1576083334436968671,821,0,,0.0,0.0,0.0,0.0,0.0,0.0,0.0,0.0,0.0,0.0,0.0,0.0,0.0,0.083,-0.01,-0.12,0.0,0.0,0.0,0.0,0.0,0.0,0.0,0.0,0.0,-1.075,3.49,9.99,0.0,0.0,0.0,0.0,0.0,0.0,0.0,0.0,0.0
1576083334500240293,822,0,,0.0,0.0,0.0,0.0,0.0,0.0,0.0,0.0,0.0,0.0,0.0,0.0,0.0,0.019,-0.012,0.01,0.0,0.0,0.0,0.0,0.0,0.0,0.0,0.0,0.0,0.758,1.777,9.69,0.0,0.0,0.0,0.0,0.0,0.0,0.0,0.0,0.0
1576083334592427211,823,0,,0.0,0.0,0.0,0.0,0.0,0.0,0.0,0.0,0.0,0.0,0.0,0.0,0.0,-0.048,0.019,0.03,0.0,0.0,0.0,0.0,0.0,0.0,0.0,0.0,0.0,0.841,0.829,9.41,0.0,0.0,0.0,0.0,0.0,0.0,0.0,0.0,0.0
1576083334634417704,824,0,,0.0,0.0,0.0,0.0,0.0,0.0,0.0,0.0,0.0,0.0,0.0,0.0,0.0,-0.06,0.005,-0.07,0.0,0.0,0.0,0.0,0.0,0.0,0.0,0.0,0.0,0.471,1.399,9.85,0.0,0.0,0.0,0.0,0.0,0.0,0.0,0.0,0.0
1576083334705645050,825,0,,0.0,0.0,0.0,0.0,0.0,0.0,0.0,0.0,0.0,0.0,0.0,0.0,0.0,-0.05,0.01,-0.11,0.0,0.0,0.0,0.0,0.0,0.0,0.0,0.0,0.0,0.067,1.498,9.74,0.0,0.0,0.0,0.0,0.0,0.0,0.0,0.0,0.0
1576083334784260581,826,0,,0.0,0.0,0.0,0.0,0.0,0.0,0.0,0.0,0.0,0.0,0.0,0.0,0.0,-0.019,0.013,-0.11,0.0,0.0,0.0,0.0,0.0,0.0,0.0,0.0,0.0,0.415,1.934,9.89,0.0,0.0,0.0,0.0,0.0,0.0,0.0,0.0,0.0
1576083334835443496,827,0,,0.0,0.0,0.0,0.0,0.0,0.0,0.0,0.0,0.0,0.0,0.0,0.0,0.0,-0.021,0.004,-0.1,0.0,0.0,0.0,0.0,0.0,0.0,0.0,0.0,0.0,0.145,1.58,9.28,0.0,0.0,0.0,0.0,0.0,0.0,0.0,0.0,0.0
1576083334912372987,828,0,,0.0,0.0,0.0,0.0,0.0,0.0,0.0,0.0,0.0,0.0,0.0,0.0,0.0,-0.027,0.006,-0.11,0.0,0.0,0.0,0.0,0.0,0.0,0.0,0.0,0.0,0.172,1.563,9.48,0.0,0.0,0.0,0.0,0.0,0.0,0.0,0.0,0.0
1576083334986584341,829,0,,0.0,0.0,0.0,0.0,0.0,0.0,0.0,0.0,0.0,0.0,0.0,0.0,0.0,-0.01,-0.021,-0.21,0.0,0.0,0.0,0.0,0.0,0.0,0.0,0.0,0.0,0.572,1.161,9.76,0.0,0.0,0.0,0.0,0.0,0.0,0.0,0.0,0.0
1576083335110112038,830,0,,0.0,0.0,0.0,0.0,0.0,0.0,0.0,0.0,0.0,0.0,0.0,0.0,0.0,-0.012,-0.005,-0.05,0.0,0.0,0.0,0.0,0.0,0.0,0.0,0.0,0.0,0.551,1.249,9.78,0.0,0.0,0.0,0.0,0.0,0.0,0.0,0.0,0.0
1576083335188428253,831,0,,0.0,0.0,0.0,0.0,0.0,0.0,0.0,0.0,0.0,0.0,0.0,0.0,0.0,-0.016,0.004,0.08,0.0,0.0,0.0,0.0,0.0,0.0,0.0,0.0,0.0,0.404,1.454,8.65,0.0,0.0,0.0,0.0,0.0,0.0,0.0,0.0,0.0
1576083335239399450,832,0,,0.0,0.0,0.0,0.0,0.0,0.0,0.0,0.0,0.0,0.0,0.0,0.0,0.0,-0.015,-0.009,0.1,0.0,0.0,0.0,0.0,0.0,0.0,0.0,0.0,0.0,0.152,0.879,8.26,0.0,0.0,0.0,0.0,0.0,0.0,0.0,0.0,0.0
1576083335386321635,833,0,,0.0,0.0,0.0,0.0,0.0,0.0,0.0,0.0,0.0,0.0,0.0,0.0,0.0,-0.012,0.006,0.11,0.0,0.0,0.0,0.0,0.0,0.0,0.0,0.0,0.0,-0.684,1.239,12.14,0.0,0.0,0.0,0.0,0.0,0.0,0.0,0.0,0.0
1576083335433285158,834,0,,0.0,0.0,0.0,0.0,0.0,0.0,0.0,0.0,0.0,0.0,0.0,0.0,0.0,0.013,-0.003,0.12,0.0,0.0,0.0,0.0,0.0,0.0,0.0,0.0,0.0,-0.384,1.355,12.66,0.0,0.0,0.0,0.0,0.0,0.0,0.0,0.0,0.0
1576083335502310382,835,0,,0.0,0.0,0.0,0.0,0.0,0.0,0.0,0.0,0.0,0.0,0.0,0.0,0.0,0.006,-0.008,0.09,0.0,0.0,0.0,0.0,0.0,0.0,0.0,0.0,0.0,-0.077,1.007,9.32,0.0,0.0,0.0,0.0,0.0,0.0,0.0,0.0,0.0
1576083335591451087,836,0,,0.0,0.0,0.0,0.0,0.0,0.0,0.0,0.0,0.0,0.0,0.0,0.0,0.0,0.021,0.005,0.09,0.0,0.0,0.0,0.0,0.0,0.0,0.0,0.0,0.0,-0.04,1.155,7.72,0.0,0.0,0.0,0.0,0.0,0.0,0.0,0.0,0.0
1576083335635080134,837,0,,0.0,0.0,0.0,0.0,0.0,0.0,0.0,0.0,0.0,0.0,0.0,0.0,0.0,0.023,-0.002,0.09,0.0,0.0,0.0,0.0,0.0,0.0,0.0,0.0,0.0,0.079,0.897,10.11,0.0,0.0,0.0,0.0,0.0,0.0,0.0,0.0,0.0
1576083335704229667,838,0,,0.0,0.0,0.0,0.0,0.0,0.0,0.0,0.0,0.0,0.0,0.0,0.0,0.0,0.022,-0.003,0.05,0.0,0.0,0.0,0.0,0.0,0.0,0.0,0.0,0.0,0.67,1.248,9.16,0.0,0.0,0.0,0.0,0.0,0.0,0.0,0.0,0.0
1576083335785543579,839,0,,0.0,0.0,0.0,0.0,0.0,0.0,0.0,0.0,0.0,0.0,0.0,0.0,0.0,0.022,-0.002,0.03,0.0,0.0,0.0,0.0,0.0,0.0,0.0,0.0,0.0,0.571,0.634,8.56,0.0,0.0,0.0,0.0,0.0,0.0,0.0,0.0,0.0
1576083335834624296,840,0,,0.0,0.0,0.0,0.0,0.0,0.0,0.0,0.0,0.0,0.0,0.0,0.0,0.0,0.011,-0.021,-0.06,0.0,0.0,0.0,0.0,0.0,0.0,0.0,0.0,0.0,0.057,0.764,10.47,0.0,0.0,0.0,0.0,0.0,0.0,0.0,0.0,0.0
1576083335902728821,841,0,,0.0,0.0,0.0,0.0,0.0,0.0,0.0,0.0,0.0,0.0,0.0,0.0,0.0,-0.01,-0.002,-0.09,0.0,0.0,0.0,0.0,0.0,0.0,0.0,0.0,0.0,0.541,0.461,11.05,0.0,0.0,0.0,0.0,0.0,0.0,0.0,0.0,0.0
1576083335970600629,842,0,,0.0,0.0,0.0,0.0,0.0,0.0,0.0,0.0,0.0,0.0,0.0,0.0,0.0,-0.012,-0.015,-0.16,0.0,0.0,0.0,0.0,0.0,0.0,0.0,0.0,0.0,0.15,1.036,14.22,0.0,0.0,0.0,0.0,0.0,0.0,0.0,0.0,0.0
1576083336036338744,843,0,,0.0,0.0,0.0,0.0,0.0,0.0,0.0,0.0,0.0,0.0,0.0,0.0,0.0,-0.014,0.003,-0.16,0.0,0.0,0.0,0.0,0.0,0.0,0.0,0.0,0.0,0.292,0.651,5.24,0.0,0.0,0.0,0.0,0.0,0.0,0.0,0.0,0.0
1576083336103232923,844,0,,0.0,0.0,0.0,0.0,0.0,0.0,0.0,0.0,0.0,0.0,0.0,0.0,0.0,-0.005,0.002,-0.17,0.0,0.0,0.0,0.0,0.0,0.0,0.0,0.0,0.0,0.2,0.18,7.13,0.0,0.0,0.0,0.0,0.0,0.0,0.0,0.0,0.0
1576083336185895265,845,0,,0.0,0.0,0.0,0.0,0.0,0.0,0.0,0.0,0.0,0.0,0.0,0.0,0.0,-0.028,-0.002,-0.18,0.0,0.0,0.0,0.0,0.0,0.0,0.0,0.0,0.0,-0.704,0.605,10.5,0.0,0.0,0.0,0.0,0.0,0.0,0.0,0.0,0.0
1576083336240058985,846,0,,0.0,0.0,0.0,0.0,0.0,0.0,0.0,0.0,0.0,0.0,0.0,0.0,0.0,-0.013,0.013,-0.1,0.0,0.0,0.0,0.0,0.0,0.0,0.0,0.0,0.0,-0.366,0.635,12.72,0.0,0.0,0.0,0.0,0.0,0.0,0.0,0.0,0.0
1576083336394249895,847,0,,0.0,0.0,0.0,0.0,0.0,0.0,0.0,0.0,0.0,0.0,0.0,0.0,0.0,0.003,0.008,-0.0,0.0,0.0,0.0,0.0,0.0,0.0,0.0,0.0,0.0,-0.452,-0.581,9.26,0.0,0.0,0.0,0.0,0.0,0.0,0.0,0.0,0.0
1576083336512756856,848,0,,0.0,0.0,0.0,0.0,0.0,0.0,0.0,0.0,0.0,0.0,0.0,0.0,0.0,-0.054,-0.023,0.02,0.0,0.0,0.0,0.0,0.0,0.0,0.0,0.0,0.0,0.265,0.269,10.87,0.0,0.0,0.0,0.0,0.0,0.0,0.0,0.0,0.0
1576083336633181829,849,0,,0.0,0.0,0.0,0.0,0.0,0.0,0.0,0.0,0.0,0.0,0.0,0.0,0.0,-0.035,0.021,0.08,0.0,0.0,0.0,0.0,0.0,0.0,0.0,0.0,0.0,0.42,0.911,7.42,0.0,0.0,0.0,0.0,0.0,0.0,0.0,0.0,0.0
1576083336701145022,850,0,,0.0,0.0,0.0,0.0,0.0,0.0,0.0,0.0,0.0,0.0,0.0,0.0,0.0,-0.019,0.006,0.08,0.0,0.0,0.0,0.0,0.0,0.0,0.0,0.0,0.0,1.003,-1.202,11.05,0.0,0.0,0.0,0.0,0.0,0.0,0.0,0.0,0.0
1576083336785307778,851,0,,0.0,0.0,0.0,0.0,0.0,0.0,0.0,0.0,0.0,0.0,0.0,0.0,0.0,-0.202,-0.226,-0.04,0.0,0.0,0.0,0.0,0.0,0.0,0.0,0.0,0.0,1.04,-2.685,10.25,0.0,0.0,0.0,0.0,0.0,0.0,0.0,0.0,0.0
1576083336834229823,852,0,,0.0,0.0,0.0,0.0,0.0,0.0,0.0,0.0,0.0,0.0,0.0,0.0,0.0,0.11,0.288,-0.1,0.0,0.0,0.0,0.0,0.0,0.0,0.0,0.0,0.0,-0.241,0.557,6.24,0.0,0.0,0.0,0.0,0.0,0.0,0.0,0.0,0.0
1576083336899863824,853,0,,0.0,0.0,0.0,0.0,0.0,0.0,0.0,0.0,0.0,0.0,0.0,0.0,0.0,0.097,-0.039,0.17,0.0,0.0,0.0,0.0,0.0,0.0,0.0,0.0,0.0,0.358,0.926,6.48,0.0,0.0,0.0,0.0,0.0,0.0,0.0,0.0,0.0
1576083336987530407,854,0,,0.0,0.0,0.0,0.0,0.0,0.0,0.0,0.0,0.0,0.0,0.0,0.0,0.0,-0.118,0.026,0.17,0.0,0.0,0.0,0.0,0.0,0.0,0.0,0.0,0.0,0.598,0.459,10.85,0.0,0.0,0.0,0.0,0.0,0.0,0.0,0.0,0.0
1576083337034447232,855,0,,0.0,0.0,0.0,0.0,0.0,0.0,0.0,0.0,0.0,0.0,0.0,0.0,0.0,0.026,0.004,0.03,0.0,0.0,0.0,0.0,0.0,0.0,0.0,0.0,0.0,0.295,1.158,5.74,0.0,0.0,0.0,0.0,0.0,0.0,0.0,0.0,0.0
1576083337103128832,856,0,,0.0,0.0,0.0,0.0,0.0,0.0,0.0,0.0,0.0,0.0,0.0,0.0,0.0,-0.189,-0.016,0.21,0.0,0.0,0.0,0.0,0.0,0.0,0.0,0.0,0.0,0.947,-1.737,9.88,0.0,0.0,0.0,0.0,0.0,0.0,0.0,0.0,0.0
1576083337183928666,857,0,,0.0,0.0,0.0,0.0,0.0,0.0,0.0,0.0,0.0,0.0,0.0,0.0,0.0,-0.118,-0.013,0.05,0.0,0.0,0.0,0.0,0.0,0.0,0.0,0.0,0.0,-0.528,0.12,10.19,0.0,0.0,0.0,0.0,0.0,0.0,0.0,0.0,0.0
1576083337235110620,858,0,,0.0,0.0,0.0,0.0,0.0,0.0,0.0,0.0,0.0,0.0,0.0,0.0,0.0,0.07,0.024,0.08,0.0,0.0,0.0,0.0,0.0,0.0,0.0,0.0,0.0,1.084,0.635,15.46,0.0,0.0,0.0,0.0,0.0,0.0,0.0,0.0,0.0
1576083337305173500,859,0,,0.0,0.0,0.0,0.0,0.0,0.0,0.0,0.0,0.0,0.0,0.0,0.0,0.0,-0.023,-0.032,0.17,0.0,0.0,0.0,0.0,0.0,0.0,0.0,0.0,0.0,-0.498,0.164,8.44,0.0,0.0,0.0,0.0,0.0,0.0,0.0,0.0,0.0
1576083337388524963,860,0,,0.0,0.0,0.0,0.0,0.0,0.0,0.0,0.0,0.0,0.0,0.0,0.0,0.0,0.025,0.046,0.05,0.0,0.0,0.0,0.0,0.0,0.0,0.0,0.0,0.0,0.017,-0.326,6.77,0.0,0.0,0.0,0.0,0.0,0.0,0.0,0.0,0.0
1576083337439973959,861,0,,0.0,0.0,0.0,0.0,0.0,0.0,0.0,0.0,0.0,0.0,0.0,0.0,0.0,0.004,-0.02,0.09,0.0,0.0,0.0,0.0,0.0,0.0,0.0,0.0,0.0,-0.047,0.663,13.39,0.0,0.0,0.0,0.0,0.0,0.0,0.0,0.0,0.0
1576083337512105955,862,0,,0.0,0.0,0.0,0.0,0.0,0.0,0.0,0.0,0.0,0.0,0.0,0.0,0.0,-0.015,0.02,0.13,0.0,0.0,0.0,0.0,0.0,0.0,0.0,0.0,0.0,-0.126,-0.269,12.98,0.0,0.0,0.0,0.0,0.0,0.0,0.0,0.0,0.0
1576083337589975436,863,0,,0.0,0.0,0.0,0.0,0.0,0.0,0.0,0.0,0.0,0.0,0.0,0.0,0.0,0.008,-0.008,0.1,0.0,0.0,0.0,0.0,0.0,0.0,0.0,0.0,0.0,-0.099,0.198,8.78,0.0,0.0,0.0,0.0,0.0,0.0,0.0,0.0,0.0
1576083337706697364,864,0,,0.0,0.0,0.0,0.0,0.0,0.0,0.0,0.0,0.0,0.0,0.0,0.0,0.0,0.009,0.051,0.07,0.0,0.0,0.0,0.0,0.0,0.0,0.0,0.0,0.0,1.39,0.085,8.49,0.0,0.0,0.0,0.0,0.0,0.0,0.0,0.0,0.0
1576083337778587001,865,0,,0.0,0.0,0.0,0.0,0.0,0.0,0.0,0.0,0.0,0.0,0.0,0.0,0.0,0.013,-0.035,-0.1,0.0,0.0,0.0,0.0,0.0,0.0,0.0,0.0,0.0,0.205,0.873,9.03,0.0,0.0,0.0,0.0,0.0,0.0,0.0,0.0,0.0
1576083337850667491,866,0,,0.0,0.0,0.0,0.0,0.0,0.0,0.0,0.0,0.0,0.0,0.0,0.0,0.0,-0.006,-0.036,-0.13,0.0,0.0,0.0,0.0,0.0,0.0,0.0,0.0,0.0,1.137,-0.974,10.05,0.0,0.0,0.0,0.0,0.0,0.0,0.0,0.0,0.0
1576083337980495655,867,0,,0.0,0.0,0.0,0.0,0.0,0.0,0.0,0.0,0.0,0.0,0.0,0.0,0.0,0.033,0.008,-0.15,0.0,0.0,0.0,0.0,0.0,0.0,0.0,0.0,0.0,1.043,0.236,10.35,0.0,0.0,0.0,0.0,0.0,0.0,0.0,0.0,0.0
1576083338032899784,868,0,,0.0,0.0,0.0,0.0,0.0,0.0,0.0,0.0,0.0,0.0,0.0,0.0,0.0,-0.014,-0.02,-0.18,0.0,0.0,0.0,0.0,0.0,0.0,0.0,0.0,0.0,0.26,0.228,12.74,0.0,0.0,0.0,0.0,0.0,0.0,0.0,0.0,0.0
1576083338101094040,869,0,,0.0,0.0,0.0,0.0,0.0,0.0,0.0,0.0,0.0,0.0,0.0,0.0,0.0,0.012,0.003,-0.12,0.0,0.0,0.0,0.0,0.0,0.0,0.0,0.0,0.0,0.153,0.178,9.56,0.0,0.0,0.0,0.0,0.0,0.0,0.0,0.0,0.0
1576083338178394486,870,0,,0.0,0.0,0.0,0.0,0.0,0.0,0.0,0.0,0.0,0.0,0.0,0.0,0.0,0.001,0.003,-0.11,0.0,0.0,0.0,0.0,0.0,0.0,0.0,0.0,0.0,0.23,-0.654,10.47,0.0,0.0,0.0,0.0,0.0,0.0,0.0,0.0,0.0
1576083338233869297,871,0,,0.0,0.0,0.0,0.0,0.0,0.0,0.0,0.0,0.0,0.0,0.0,0.0,0.0,0.012,-0.004,-0.07,0.0,0.0,0.0,0.0,0.0,0.0,0.0,0.0,0.0,0.261,0.06,6.61,0.0,0.0,0.0,0.0,0.0,0.0,0.0,0.0,0.0
1576083338302466372,872,0,,0.0,0.0,0.0,0.0,0.0,0.0,0.0,0.0,0.0,0.0,0.0,0.0,0.0,0.003,-0.005,-0.03,0.0,0.0,0.0,0.0,0.0,0.0,0.0,0.0,0.0,0.085,0.207,8.28,0.0,0.0,0.0,0.0,0.0,0.0,0.0,0.0,0.0
1576083338376466034,873,0,,0.0,0.0,0.0,0.0,0.0,0.0,0.0,0.0,0.0,0.0,0.0,0.0,0.0,0.025,-0.006,-0.0,0.0,0.0,0.0,0.0,0.0,0.0,0.0,0.0,0.0,0.276,0.249,12.98,0.0,0.0,0.0,0.0,0.0,0.0,0.0,0.0,0.0
1576083338438300602,874,0,,0.0,0.0,0.0,0.0,0.0,0.0,0.0,0.0,0.0,0.0,0.0,0.0,0.0,-0.008,0.011,-0.0,0.0,0.0,0.0,0.0,0.0,0.0,0.0,0.0,0.0,-0.148,0.804,9.52,0.0,0.0,0.0,0.0,0.0,0.0,0.0,0.0,0.0
1576083338509325797,875,0,,0.0,0.0,0.0,0.0,0.0,0.0,0.0,0.0,0.0,0.0,0.0,0.0,0.0,0.006,-0.01,-0.05,0.0,0.0,0.0,0.0,0.0,0.0,0.0,0.0,0.0,0.24,0.313,11.46,0.0,0.0,0.0,0.0,0.0,0.0,0.0,0.0,0.0
1576083338585419916,876,0,,0.0,0.0,0.0,0.0,0.0,0.0,0.0,0.0,0.0,0.0,0.0,0.0,0.0,-0.026,-0.023,-0.07,0.0,0.0,0.0,0.0,0.0,0.0,0.0,0.0,0.0,-0.061,1.125,13.45,0.0,0.0,0.0,0.0,0.0,0.0,0.0,0.0,0.0
1576083338636097390,877,0,,0.0,0.0,0.0,0.0,0.0,0.0,0.0,0.0,0.0,0.0,0.0,0.0,0.0,-0.064,-0.042,-0.14,0.0,0.0,0.0,0.0,0.0,0.0,0.0,0.0,0.0,0.31,0.76,3.66,0.0,0.0,0.0,0.0,0.0,0.0,0.0,0.0,0.0
1576083338707357560,878,0,,0.0,0.0,0.0,0.0,0.0,0.0,0.0,0.0,0.0,0.0,0.0,0.0,0.0,0.104,0.213,-0.36,0.0,0.0,0.0,0.0,0.0,0.0,0.0,0.0,0.0,-1.809,-3.628,16.23,0.0,0.0,0.0,0.0,0.0,0.0,0.0,0.0,0.0
1576083338784812112,879,0,,0.0,0.0,0.0,0.0,0.0,0.0,0.0,0.0,0.0,0.0,0.0,0.0,0.0,-0.02,-0.026,0.04,0.0,0.0,0.0,0.0,0.0,0.0,0.0,0.0,0.0,0.417,0.861,8.04,0.0,0.0,0.0,0.0,0.0,0.0,0.0,0.0,0.0
1576083338839730771,880,0,,0.0,0.0,0.0,0.0,0.0,0.0,0.0,0.0,0.0,0.0,0.0,0.0,0.0,-0.005,0.01,-0.0,0.0,0.0,0.0,0.0,0.0,0.0,0.0,0.0,0.0,0.152,-1.323,11.33,0.0,0.0,0.0,0.0,0.0,0.0,0.0,0.0,0.0
1576083338918100367,881,0,,0.0,0.0,0.0,0.0,0.0,0.0,0.0,0.0,0.0,0.0,0.0,0.0,0.0,-0.049,-0.019,0.12,0.0,0.0,0.0,0.0,0.0,0.0,0.0,0.0,0.0,-0.706,1.666,13.21,0.0,0.0,0.0,0.0,0.0,0.0,0.0,0.0,0.0
1576083339040589005,882,0,,0.0,0.0,0.0,0.0,0.0,0.0,0.0,0.0,0.0,0.0,0.0,0.0,0.0,-0.03,0.024,0.19,0.0,0.0,0.0,0.0,0.0,0.0,0.0,0.0,0.0,-0.243,-0.346,10.53,0.0,0.0,0.0,0.0,0.0,0.0,0.0,0.0,0.0
1576083339101573134,883,0,,0.0,0.0,0.0,0.0,0.0,0.0,0.0,0.0,0.0,0.0,0.0,0.0,0.0,0.072,-0.002,0.28,0.0,0.0,0.0,0.0,0.0,0.0,0.0,0.0,0.0,0.431,-0.516,10.18,0.0,0.0,0.0,0.0,0.0,0.0,0.0,0.0,0.0
1576083339185834650,884,0,,0.0,0.0,0.0,0.0,0.0,0.0,0.0,0.0,0.0,0.0,0.0,0.0,0.0,-0.02,-0.011,0.28,0.0,0.0,0.0,0.0,0.0,0.0,0.0,0.0,0.0,-0.126,0.571,12.49,0.0,0.0,0.0,0.0,0.0,0.0,0.0,0.0,0.0
1576083339234130878,885,0,,0.0,0.0,0.0,0.0,0.0,0.0,0.0,0.0,0.0,0.0,0.0,0.0,0.0,0.007,-0.017,0.3,0.0,0.0,0.0,0.0,0.0,0.0,0.0,0.0,0.0,0.676,-0.48,10.43,0.0,0.0,0.0,0.0,0.0,0.0,0.0,0.0,0.0
1576083339301253337,886,0,,0.0,0.0,0.0,0.0,0.0,0.0,0.0,0.0,0.0,0.0,0.0,0.0,0.0,0.0,0.002,0.24,0.0,0.0,0.0,0.0,0.0,0.0,0.0,0.0,0.0,0.67,0.09,6.38,0.0,0.0,0.0,0.0,0.0,0.0,0.0,0.0,0.0
1576083339384164173,887,0,,0.0,0.0,0.0,0.0,0.0,0.0,0.0,0.0,0.0,0.0,0.0,0.0,0.0,0.007,-0.012,0.14,0.0,0.0,0.0,0.0,0.0,0.0,0.0,0.0,0.0,0.396,-0.575,11.68,0.0,0.0,0.0,0.0,0.0,0.0,0.0,0.0,0.0
1576083339433078545,888,0,,0.0,0.0,0.0,0.0,0.0,0.0,0.0,0.0,0.0,0.0,0.0,0.0,0.0,0.014,-0.006,0.01,0.0,0.0,0.0,0.0,0.0,0.0,0.0,0.0,0.0,0.632,0.345,11.55,0.0,0.0,0.0,0.0,0.0,0.0,0.0,0.0,0.0
1576083339503417993,889,0,,0.0,0.0,0.0,0.0,0.0,0.0,0.0,0.0,0.0,0.0,0.0,0.0,0.0,0.03,-0.009,-0.12,0.0,0.0,0.0,0.0,0.0,0.0,0.0,0.0,0.0,0.813,0.389,15.59,0.0,0.0,0.0,0.0,0.0,0.0,0.0,0.0,0.0
1576083339577373750,890,0,,0.0,0.0,0.0,0.0,0.0,0.0,0.0,0.0,0.0,0.0,0.0,0.0,0.0,0.002,0.013,-0.22,0.0,0.0,0.0,0.0,0.0,0.0,0.0,0.0,0.0,0.343,-0.449,11.69,0.0,0.0,0.0,0.0,0.0,0.0,0.0,0.0,0.0
1576083339636305800,891,0,,0.0,0.0,0.0,0.0,0.0,0.0,0.0,0.0,0.0,0.0,0.0,0.0,0.0,0.037,0.007,-0.17,0.0,0.0,0.0,0.0,0.0,0.0,0.0,0.0,0.0,0.367,-0.52,7.64,0.0,0.0,0.0,0.0,0.0,0.0,0.0,0.0,0.0
1576083339705577905,892,0,,0.0,0.0,0.0,0.0,0.0,0.0,0.0,0.0,0.0,0.0,0.0,0.0,0.0,0.001,-0.013,-0.06,0.0,0.0,0.0,0.0,0.0,0.0,0.0,0.0,0.0,-0.21,-1.092,10.02,0.0,0.0,0.0,0.0,0.0,0.0,0.0,0.0,0.0
1576083339784299905,893,0,,0.0,0.0,0.0,0.0,0.0,0.0,0.0,0.0,0.0,0.0,0.0,0.0,0.0,-0.001,-0.009,0.01,0.0,0.0,0.0,0.0,0.0,0.0,0.0,0.0,0.0,-0.471,0.171,8.45,0.0,0.0,0.0,0.0,0.0,0.0,0.0,0.0,0.0
1576083339838180511,894,0,,0.0,0.0,0.0,0.0,0.0,0.0,0.0,0.0,0.0,0.0,0.0,0.0,0.0,0.009,-0.0,0.07,0.0,0.0,0.0,0.0,0.0,0.0,0.0,0.0,0.0,0.215,-0.049,11.47,0.0,0.0,0.0,0.0,0.0,0.0,0.0,0.0,0.0
1576083339907512159,895,0,,0.0,0.0,0.0,0.0,0.0,0.0,0.0,0.0,0.0,0.0,0.0,0.0,0.0,-0.003,-0.013,0.09,0.0,0.0,0.0,0.0,0.0,0.0,0.0,0.0,0.0,0.085,0.627,11.2,0.0,0.0,0.0,0.0,0.0,0.0,0.0,0.0,0.0
1576083340039430503,896,0,,0.0,0.0,0.0,0.0,0.0,0.0,0.0,0.0,0.0,0.0,0.0,0.0,0.0,0.017,0.011,0.06,0.0,0.0,0.0,0.0,0.0,0.0,0.0,0.0,0.0,-0.056,-0.247,10.03,0.0,0.0,0.0,0.0,0.0,0.0,0.0,0.0,0.0
1576083340110377192,897,0,,0.0,0.0,0.0,0.0,0.0,0.0,0.0,0.0,0.0,0.0,0.0,0.0,0.0,-0.002,-0.007,0.06,0.0,0.0,0.0,0.0,0.0,0.0,0.0,0.0,0.0,0.012,0.014,8.84,0.0,0.0,0.0,0.0,0.0,0.0,0.0,0.0,0.0
1576083340244345568,898,0,,0.0,0.0,0.0,0.0,0.0,0.0,0.0,0.0,0.0,0.0,0.0,0.0,0.0,-0.035,0.122,-0.01,0.0,0.0,0.0,0.0,0.0,0.0,0.0,0.0,0.0,0.629,0.393,14.07,0.0,0.0,0.0,0.0,0.0,0.0,0.0,0.0,0.0
1576083340391106528,899,0,,0.0,0.0,0.0,0.0,0.0,0.0,0.0,0.0,0.0,0.0,0.0,0.0,0.0,0.081,-0.053,-0.0,0.0,0.0,0.0,0.0,0.0,0.0,0.0,0.0,0.0,-0.132,2.088,4.71,0.0,0.0,0.0,0.0,0.0,0.0,0.0,0.0,0.0
1576083340433459913,900,0,,0.0,0.0,0.0,0.0,0.0,0.0,0.0,0.0,0.0,0.0,0.0,0.0,0.0,-0.043,-0.068,0.1,0.0,0.0,0.0,0.0,0.0,0.0,0.0,0.0,0.0,0.234,-1.5,10.09,0.0,0.0,0.0,0.0,0.0,0.0,0.0,0.0,0.0
1576083340501392304,901,0,,0.0,0.0,0.0,0.0,0.0,0.0,0.0,0.0,0.0,0.0,0.0,0.0,0.0,0.007,-0.025,0.11,0.0,0.0,0.0,0.0,0.0,0.0,0.0,0.0,0.0,0.607,1.286,13.2,0.0,0.0,0.0,0.0,0.0,0.0,0.0,0.0,0.0
1576083340589329940,902,0,,0.0,0.0,0.0,0.0,0.0,0.0,0.0,0.0,0.0,0.0,0.0,0.0,0.0,0.036,0.006,0.06,0.0,0.0,0.0,0.0,0.0,0.0,0.0,0.0,0.0,-0.175,0.441,2.31,0.0,0.0,0.0,0.0,0.0,0.0,0.0,0.0,0.0
1576083340637752226,903,0,,0.0,0.0,0.0,0.0,0.0,0.0,0.0,0.0,0.0,0.0,0.0,0.0,0.0,-0.1,-0.023,0.08,0.0,0.0,0.0,0.0,0.0,0.0,0.0,0.0,0.0,0.306,-0.411,7.14,0.0,0.0,0.0,0.0,0.0,0.0,0.0,0.0,0.0
1576083340716979212,904,0,,0.0,0.0,0.0,0.0,0.0,0.0,0.0,0.0,0.0,0.0,0.0,0.0,0.0,0.029,-0.008,0.08,0.0,0.0,0.0,0.0,0.0,0.0,0.0,0.0,0.0,-0.606,0.414,10.83,0.0,0.0,0.0,0.0,0.0,0.0,0.0,0.0,0.0
1576083340781204167,905,0,,0.0,0.0,0.0,0.0,0.0,0.0,0.0,0.0,0.0,0.0,0.0,0.0,0.0,0.003,-0.004,0.06,0.0,0.0,0.0,0.0,0.0,0.0,0.0,0.0,0.0,0.233,-0.232,10.73,0.0,0.0,0.0,0.0,0.0,0.0,0.0,0.0,0.0
1576083340837400681,906,0,,0.0,0.0,0.0,0.0,0.0,0.0,0.0,0.0,0.0,0.0,0.0,0.0,0.0,0.008,-0.006,-0.01,0.0,0.0,0.0,0.0,0.0,0.0,0.0,0.0,0.0,0.558,-0.583,7.07,0.0,0.0,0.0,0.0,0.0,0.0,0.0,0.0,0.0
1576083340909477659,907,0,,0.0,0.0,0.0,0.0,0.0,0.0,0.0,0.0,0.0,0.0,0.0,0.0,0.0,-0.005,-0.012,-0.07,0.0,0.0,0.0,0.0,0.0,0.0,0.0,0.0,0.0,0.562,-0.582,11.45,0.0,0.0,0.0,0.0,0.0,0.0,0.0,0.0,0.0
1576083340983265432,908,0,,0.0,0.0,0.0,0.0,0.0,0.0,0.0,0.0,0.0,0.0,0.0,0.0,0.0,0.012,-0.014,-0.07,0.0,0.0,0.0,0.0,0.0,0.0,0.0,0.0,0.0,0.923,0.324,7.25,0.0,0.0,0.0,0.0,0.0,0.0,0.0,0.0,0.0
1576083341041320767,909,0,,0.0,0.0,0.0,0.0,0.0,0.0,0.0,0.0,0.0,0.0,0.0,0.0,0.0,-0.001,0.008,-0.09,0.0,0.0,0.0,0.0,0.0,0.0,0.0,0.0,0.0,0.21,-0.147,9.53,0.0,0.0,0.0,0.0,0.0,0.0,0.0,0.0,0.0
1576083341107650760,910,0,,0.0,0.0,0.0,0.0,0.0,0.0,0.0,0.0,0.0,0.0,0.0,0.0,0.0,-0.01,0.011,-0.07,0.0,0.0,0.0,0.0,0.0,0.0,0.0,0.0,0.0,0.568,0.386,8.27,0.0,0.0,0.0,0.0,0.0,0.0,0.0,0.0,0.0
1576083341185047972,911,0,,0.0,0.0,0.0,0.0,0.0,0.0,0.0,0.0,0.0,0.0,0.0,0.0,0.0,0.006,0.007,-0.04,0.0,0.0,0.0,0.0,0.0,0.0,0.0,0.0,0.0,0.464,0.267,12.4,0.0,0.0,0.0,0.0,0.0,0.0,0.0,0.0,0.0
1576083341308193039,912,0,,0.0,0.0,0.0,0.0,0.0,0.0,0.0,0.0,0.0,0.0,0.0,0.0,0.0,0.015,-0.034,0.03,0.0,0.0,0.0,0.0,0.0,0.0,0.0,0.0,0.0,0.541,0.231,10.06,0.0,0.0,0.0,0.0,0.0,0.0,0.0,0.0,0.0
1576083341382333025,913,0,,0.0,0.0,0.0,0.0,0.0,0.0,0.0,0.0,0.0,0.0,0.0,0.0,0.0,0.008,0.004,0.04,0.0,0.0,0.0,0.0,0.0,0.0,0.0,0.0,0.0,0.114,0.47,7.59,0.0,0.0,0.0,0.0,0.0,0.0,0.0,0.0,0.0
1576083341511072387,914,0,,0.0,0.0,0.0,0.0,0.0,0.0,0.0,0.0,0.0,0.0,0.0,0.0,0.0,0.003,-0.016,0.07,0.0,0.0,0.0,0.0,0.0,0.0,0.0,0.0,0.0,0.184,0.385,6.98,0.0,0.0,0.0,0.0,0.0,0.0,0.0,0.0,0.0
1576083341635341416,915,0,,0.0,0.0,0.0,0.0,0.0,0.0,0.0,0.0,0.0,0.0,0.0,0.0,0.0,0.0,-0.008,0.07,0.0,0.0,0.0,0.0,0.0,0.0,0.0,0.0,0.0,0.39,-0.861,6.0,0.0,0.0,0.0,0.0,0.0,0.0,0.0,0.0,0.0
1576083341706735009,916,0,,0.0,0.0,0.0,0.0,0.0,0.0,0.0,0.0,0.0,0.0,0.0,0.0,0.0,0.019,-0.012,0.09,0.0,0.0,0.0,0.0,0.0,0.0,0.0,0.0,0.0,0.228,-0.483,10.6,0.0,0.0,0.0,0.0,0.0,0.0,0.0,0.0,0.0
1576083341779966622,917,0,,0.0,0.0,0.0,0.0,0.0,0.0,0.0,0.0,0.0,0.0,0.0,0.0,0.0,-0.003,-0.012,0.08,0.0,0.0,0.0,0.0,0.0,0.0,0.0,0.0,0.0,0.47,0.111,7.36,0.0,0.0,0.0,0.0,0.0,0.0,0.0,0.0,0.0
1576083341834914252,918,0,,0.0,0.0,0.0,0.0,0.0,0.0,0.0,0.0,0.0,0.0,0.0,0.0,0.0,-0.007,0.01,0.06,0.0,0.0,0.0,0.0,0.0,0.0,0.0,0.0,0.0,0.765,0.294,7.89,0.0,0.0,0.0,0.0,0.0,0.0,0.0,0.0,0.0
1576083341901168776,919,0,,0.0,0.0,0.0,0.0,0.0,0.0,0.0,0.0,0.0,0.0,0.0,0.0,0.0,-0.009,0.003,0.0,0.0,0.0,0.0,0.0,0.0,0.0,0.0,0.0,0.0,0.77,-1.205,16.01,0.0,0.0,0.0,0.0,0.0,0.0,0.0,0.0,0.0
1576083341977639801,920,0,,0.0,0.0,0.0,0.0,0.0,0.0,0.0,0.0,0.0,0.0,0.0,0.0,0.0,0.021,0.1,-0.08,0.0,0.0,0.0,0.0,0.0,0.0,0.0,0.0,0.0,0.197,-0.307,1.83,0.0,0.0,0.0,0.0,0.0,0.0,0.0,0.0,0.0
1576083342035986909,921,0,,0.0,0.0,0.0,0.0,0.0,0.0,0.0,0.0,0.0,0.0,0.0,0.0,0.0,-0.016,-0.067,0.04,0.0,0.0,0.0,0.0,0.0,0.0,0.0,0.0,0.0,1.274,1.08,8.98,0.0,0.0,0.0,0.0,0.0,0.0,0.0,0.0,0.0
1576083342107021479,922,0,,0.0,0.0,0.0,0.0,0.0,0.0,0.0,0.0,0.0,0.0,0.0,0.0,0.0,0.065,-0.01,0.06,0.0,0.0,0.0,0.0,0.0,0.0,0.0,0.0,0.0,-0.052,-0.419,7.16,0.0,0.0,0.0,0.0,0.0,0.0,0.0,0.0,0.0
1576083342170882633,923,0,,0.0,0.0,0.0,0.0,0.0,0.0,0.0,0.0,0.0,0.0,0.0,0.0,0.0,0.021,-0.008,0.01,0.0,0.0,0.0,0.0,0.0,0.0,0.0,0.0,0.0,1.478,0.853,18.48,0.0,0.0,0.0,0.0,0.0,0.0,0.0,0.0,0.0
1576083342235834006,924,0,,0.0,0.0,0.0,0.0,0.0,0.0,0.0,0.0,0.0,0.0,0.0,0.0,0.0,0.03,-0.006,-0.01,0.0,0.0,0.0,0.0,0.0,0.0,0.0,0.0,0.0,0.68,-0.59,9.14,0.0,0.0,0.0,0.0,0.0,0.0,0.0,0.0,0.0
1576083342306655161,925,0,,0.0,0.0,0.0,0.0,0.0,0.0,0.0,0.0,0.0,0.0,0.0,0.0,0.0,-0.035,-0.015,0.07,0.0,0.0,0.0,0.0,0.0,0.0,0.0,0.0,0.0,0.839,-0.514,11.11,0.0,0.0,0.0,0.0,0.0,0.0,0.0,0.0,0.0
1576083342379611112,926,0,,0.0,0.0,0.0,0.0,0.0,0.0,0.0,0.0,0.0,0.0,0.0,0.0,0.0,-0.01,-0.001,0.16,0.0,0.0,0.0,0.0,0.0,0.0,0.0,0.0,0.0,-0.233,0.094,11.86,0.0,0.0,0.0,0.0,0.0,0.0,0.0,0.0,0.0
1576083342439172155,927,0,,0.0,0.0,0.0,0.0,0.0,0.0,0.0,0.0,0.0,0.0,0.0,0.0,0.0,-0.025,0.003,0.06,0.0,0.0,0.0,0.0,0.0,0.0,0.0,0.0,0.0,0.309,0.966,12.3,0.0,0.0,0.0,0.0,0.0,0.0,0.0,0.0,0.0
1576083342505673337,928,0,,0.0,0.0,0.0,0.0,0.0,0.0,0.0,0.0,0.0,0.0,0.0,0.0,0.0,0.017,-0.015,-0.0,0.0,0.0,0.0,0.0,0.0,0.0,0.0,0.0,0.0,0.337,0.016,5.74,0.0,0.0,0.0,0.0,0.0,0.0,0.0,0.0,0.0
1576083342574104805,929,0,,0.0,0.0,0.0,0.0,0.0,0.0,0.0,0.0,0.0,0.0,0.0,0.0,0.0,-0.011,0.028,-0.05,0.0,0.0,0.0,0.0,0.0,0.0,0.0,0.0,0.0,0.444,0.371,10.44,0.0,0.0,0.0,0.0,0.0,0.0,0.0,0.0,0.0
1576083342638825424,930,0,,0.0,0.0,0.0,0.0,0.0,0.0,0.0,0.0,0.0,0.0,0.0,0.0,0.0,0.008,0.007,-0.0,0.0,0.0,0.0,0.0,0.0,0.0,0.0,0.0,0.0,0.089,0.207,7.61,0.0,0.0,0.0,0.0,0.0,0.0,0.0,0.0,0.0
1576083342778912370,931,0,,0.0,0.0,0.0,0.0,0.0,0.0,0.0,0.0,0.0,0.0,0.0,0.0,0.0,-0.005,-0.007,-0.01,0.0,0.0,0.0,0.0,0.0,0.0,0.0,0.0,0.0,0.411,0.08,8.86,0.0,0.0,0.0,0.0,0.0,0.0,0.0,0.0,0.0
1576083342830837852,932,0,,0.0,0.0,0.0,0.0,0.0,0.0,0.0,0.0,0.0,0.0,0.0,0.0,0.0,-0.005,0.01,0.03,0.0,0.0,0.0,0.0,0.0,0.0,0.0,0.0,0.0,0.592,0.621,5.02,0.0,0.0,0.0,0.0,0.0,0.0,0.0,0.0,0.0
1576083342898786834,933,0,,0.0,0.0,0.0,0.0,0.0,0.0,0.0,0.0,0.0,0.0,0.0,0.0,0.0,-0.017,0.011,0.04,0.0,0.0,0.0,0.0,0.0,0.0,0.0,0.0,0.0,0.154,-0.378,12.47,0.0,0.0,0.0,0.0,0.0,0.0,0.0,0.0,0.0
1576083342976673650,934,0,,0.0,0.0,0.0,0.0,0.0,0.0,0.0,0.0,0.0,0.0,0.0,0.0,0.0,0.002,-0.005,0.07,0.0,0.0,0.0,0.0,0.0,0.0,0.0,0.0,0.0,0.261,-0.006,9.63,0.0,0.0,0.0,0.0,0.0,0.0,0.0,0.0,0.0
1576083343044096639,935,0,,0.0,0.0,0.0,0.0,0.0,0.0,0.0,0.0,0.0,0.0,0.0,0.0,0.0,-0.002,0.0,0.09,0.0,0.0,0.0,0.0,0.0,0.0,0.0,0.0,0.0,0.292,-0.049,11.26,0.0,0.0,0.0,0.0,0.0,0.0,0.0,0.0,0.0
1576083343100614726,936,0,,0.0,0.0,0.0,0.0,0.0,0.0,0.0,0.0,0.0,0.0,0.0,0.0,0.0,0.001,-0.002,0.06,0.0,0.0,0.0,0.0,0.0,0.0,0.0,0.0,0.0,0.923,0.015,9.52,0.0,0.0,0.0,0.0,0.0,0.0,0.0,0.0,0.0
1576083343174667230,937,0,,0.0,0.0,0.0,0.0,0.0,0.0,0.0,0.0,0.0,0.0,0.0,0.0,0.0,0.006,-0.001,0.08,0.0,0.0,0.0,0.0,0.0,0.0,0.0,0.0,0.0,0.387,0.268,10.26,0.0,0.0,0.0,0.0,0.0,0.0,0.0,0.0,0.0
1576083343233592738,938,0,,0.0,0.0,0.0,0.0,0.0,0.0,0.0,0.0,0.0,0.0,0.0,0.0,0.0,-0.011,0.01,0.09,0.0,0.0,0.0,0.0,0.0,0.0,0.0,0.0,0.0,0.686,0.599,11.8,0.0,0.0,0.0,0.0,0.0,0.0,0.0,0.0,0.0
1576083343303626959,939,0,,0.0,0.0,0.0,0.0,0.0,0.0,0.0,0.0,0.0,0.0,0.0,0.0,0.0,0.0,-0.008,0.07,0.0,0.0,0.0,0.0,0.0,0.0,0.0,0.0,0.0,0.251,0.039,10.89,0.0,0.0,0.0,0.0,0.0,0.0,0.0,0.0,0.0
1576083343378694556,940,0,,0.0,0.0,0.0,0.0,0.0,0.0,0.0,0.0,0.0,0.0,0.0,0.0,0.0,0.0,-0.007,0.09,0.0,0.0,0.0,0.0,0.0,0.0,0.0,0.0,0.0,0.592,-0.071,8.75,0.0,0.0,0.0,0.0,0.0,0.0,0.0,0.0,0.0
1576083343436039572,941,0,,0.0,0.0,0.0,0.0,0.0,0.0,0.0,0.0,0.0,0.0,0.0,0.0,0.0,0.009,0.012,0.09,0.0,0.0,0.0,0.0,0.0,0.0,0.0,0.0,0.0,0.241,-0.138,10.9,0.0,0.0,0.0,0.0,0.0,0.0,0.0,0.0,0.0
1576083343511908458,942,0,,0.0,0.0,0.0,0.0,0.0,0.0,0.0,0.0,0.0,0.0,0.0,0.0,0.0,0.004,-0.008,0.08,0.0,0.0,0.0,0.0,0.0,0.0,0.0,0.0,0.0,0.345,-0.761,10.24,0.0,0.0,0.0,0.0,0.0,0.0,0.0,0.0,0.0
1576083343579412490,943,0,,0.0,0.0,0.0,0.0,0.0,0.0,0.0,0.0,0.0,0.0,0.0,0.0,0.0,0.012,0.001,0.05,0.0,0.0,0.0,0.0,0.0,0.0,0.0,0.0,0.0,0.236,-0.102,-0.42,0.0,0.0,0.0,0.0,0.0,0.0,0.0,0.0,0.0
1576083343639577370,944,0,,0.0,0.0,0.0,0.0,0.0,0.0,0.0,0.0,0.0,0.0,0.0,0.0,0.0,-0.064,0.002,0.1,0.0,0.0,0.0,0.0,0.0,0.0,0.0,0.0,0.0,0.748,-1.318,8.79,0.0,0.0,0.0,0.0,0.0,0.0,0.0,0.0,0.0
1576083343708625246,945,0,,0.0,0.0,0.0,0.0,0.0,0.0,0.0,0.0,0.0,0.0,0.0,0.0,0.0,-0.035,0.031,0.03,0.0,0.0,0.0,0.0,0.0,0.0,0.0,0.0,0.0,1.265,1.848,8.73,0.0,0.0,0.0,0.0,0.0,0.0,0.0,0.0,0.0
1576083343775890013,946,0,,0.0,0.0,0.0,0.0,0.0,0.0,0.0,0.0,0.0,0.0,0.0,0.0,0.0,-0.005,0.007,-0.04,0.0,0.0,0.0,0.0,0.0,0.0,0.0,0.0,0.0,-0.184,-0.437,8.33,0.0,0.0,0.0,0.0,0.0,0.0,0.0,0.0,0.0
1576083343908635767,947,0,,0.0,0.0,0.0,0.0,0.0,0.0,0.0,0.0,0.0,0.0,0.0,0.0,0.0,-0.051,-0.134,-0.05,0.0,0.0,0.0,0.0,0.0,0.0,0.0,0.0,0.0,-0.083,-2.178,8.98,0.0,0.0,0.0,0.0,0.0,0.0,0.0,0.0,0.0
1576083343975778384,948,0,,0.0,0.0,0.0,0.0,0.0,0.0,0.0,0.0,0.0,0.0,0.0,0.0,0.0,0.02,0.214,0.11,0.0,0.0,0.0,0.0,0.0,0.0,0.0,0.0,0.0,-0.171,1.666,8.07,0.0,0.0,0.0,0.0,0.0,0.0,0.0,0.0,0.0
1576083344050512357,949,0,,0.0,0.0,0.0,0.0,0.0,0.0,0.0,0.0,0.0,0.0,0.0,0.0,0.0,0.033,-0.051,0.1,0.0,0.0,0.0,0.0,0.0,0.0,0.0,0.0,0.0,-0.429,-1.244,8.93,0.0,0.0,0.0,0.0,0.0,0.0,0.0,0.0,0.0
1576083344100940844,950,0,,0.0,0.0,0.0,0.0,0.0,0.0,0.0,0.0,0.0,0.0,0.0,0.0,0.0,0.025,-0.005,0.12,0.0,0.0,0.0,0.0,0.0,0.0,0.0,0.0,0.0,0.208,-0.638,9.45,0.0,0.0,0.0,0.0,0.0,0.0,0.0,0.0,0.0
1576083344174306433,951,0,,0.0,0.0,0.0,0.0,0.0,0.0,0.0,0.0,0.0,0.0,0.0,0.0,0.0,0.0,0.004,0.21,0.0,0.0,0.0,0.0,0.0,0.0,0.0,0.0,0.0,-0.264,-0.259,9.36,0.0,0.0,0.0,0.0,0.0,0.0,0.0,0.0,0.0
1576083344232137929,952,0,,0.0,0.0,0.0,0.0,0.0,0.0,0.0,0.0,0.0,0.0,0.0,0.0,0.0,0.018,0.005,0.3,0.0,0.0,0.0,0.0,0.0,0.0,0.0,0.0,0.0,-0.717,-0.281,13.25,0.0,0.0,0.0,0.0,0.0,0.0,0.0,0.0,0.0
1576083344302701306,953,0,,0.0,0.0,0.0,0.0,0.0,0.0,0.0,0.0,0.0,0.0,0.0,0.0,0.0,-0.006,-0.002,0.34,0.0,0.0,0.0,0.0,0.0,0.0,0.0,0.0,0.0,0.178,0.187,7.95,0.0,0.0,0.0,0.0,0.0,0.0,0.0,0.0,0.0
1576083344372793413,954,0,,0.0,0.0,0.0,0.0,0.0,0.0,0.0,0.0,0.0,0.0,0.0,0.0,0.0,0.015,-0.004,0.35,0.0,0.0,0.0,0.0,0.0,0.0,0.0,0.0,0.0,0.311,-0.272,9.38,0.0,0.0,0.0,0.0,0.0,0.0,0.0,0.0,0.0
1576083344438446320,955,0,,0.0,0.0,0.0,0.0,0.0,0.0,0.0,0.0,0.0,0.0,0.0,0.0,0.0,-0.004,0.015,0.33,0.0,0.0,0.0,0.0,0.0,0.0,0.0,0.0,0.0,0.007,0.41,9.57,0.0,0.0,0.0,0.0,0.0,0.0,0.0,0.0,0.0
1576083344507838219,956,0,,0.0,0.0,0.0,0.0,0.0,0.0,0.0,0.0,0.0,0.0,0.0,0.0,0.0,-0.001,-0.012,0.22,0.0,0.0,0.0,0.0,0.0,0.0,0.0,0.0,0.0,0.219,0.251,8.05,0.0,0.0,0.0,0.0,0.0,0.0,0.0,0.0,0.0
1576083344572612869,957,0,,0.0,0.0,0.0,0.0,0.0,0.0,0.0,0.0,0.0,0.0,0.0,0.0,0.0,0.018,-0.011,0.22,0.0,0.0,0.0,0.0,0.0,0.0,0.0,0.0,0.0,0.17,0.225,12.64,0.0,0.0,0.0,0.0,0.0,0.0,0.0,0.0,0.0
1576083344636561640,958,0,,0.0,0.0,0.0,0.0,0.0,0.0,0.0,0.0,0.0,0.0,0.0,0.0,0.0,-0.01,0.015,0.19,0.0,0.0,0.0,0.0,0.0,0.0,0.0,0.0,0.0,-0.498,-0.396,10.09,0.0,0.0,0.0,0.0,0.0,0.0,0.0,0.0,0.0
1576083344703443445,959,0,,0.0,0.0,0.0,0.0,0.0,0.0,0.0,0.0,0.0,0.0,0.0,0.0,0.0,-0.002,-0.001,0.19,0.0,0.0,0.0,0.0,0.0,0.0,0.0,0.0,0.0,-0.006,0.425,9.49,0.0,0.0,0.0,0.0,0.0,0.0,0.0,0.0,0.0
1576083344776489681,960,0,,0.0,0.0,0.0,0.0,0.0,0.0,0.0,0.0,0.0,0.0,0.0,0.0,0.0,0.009,-0.005,0.23,0.0,0.0,0.0,0.0,0.0,0.0,0.0,0.0,0.0,0.12,0.378,7.42,0.0,0.0,0.0,0.0,0.0,0.0,0.0,0.0,0.0
1576083344838898031,961,0,,0.0,0.0,0.0,0.0,0.0,0.0,0.0,0.0,0.0,0.0,0.0,0.0,0.0,0.112,-0.072,0.09,0.0,0.0,0.0,0.0,0.0,0.0,0.0,0.0,0.0,-1.482,-1.558,11.08,0.0,0.0,0.0,0.0,0.0,0.0,0.0,0.0,0.0
1576083344971952633,962,0,,0.0,0.0,0.0,0.0,0.0,0.0,0.0,0.0,0.0,0.0,0.0,0.0,0.0,0.019,0.01,0.36,0.0,0.0,0.0,0.0,0.0,0.0,0.0,0.0,0.0,-0.441,-0.375,11.22,0.0,0.0,0.0,0.0,0.0,0.0,0.0,0.0,0.0
1576083345040843762,963,0,,0.0,0.0,0.0,0.0,0.0,0.0,0.0,0.0,0.0,0.0,0.0,0.0,0.0,-0.027,0.015,0.45,0.0,0.0,0.0,0.0,0.0,0.0,0.0,0.0,0.0,-0.197,-0.438,13.32,0.0,0.0,0.0,0.0,0.0,0.0,0.0,0.0,0.0
1576083345106465669,964,0,,0.0,0.0,0.0,0.0,0.0,0.0,0.0,0.0,0.0,0.0,0.0,0.0,0.0,-0.02,-0.013,0.49,0.0,0.0,0.0,0.0,0.0,0.0,0.0,0.0,0.0,-0.22,0.745,9.05,0.0,0.0,0.0,0.0,0.0,0.0,0.0,0.0,0.0
1576083345172666500,965,0,,0.0,0.0,0.0,0.0,0.0,0.0,0.0,0.0,0.0,0.0,0.0,0.0,0.0,-0.025,-0.006,0.5,0.0,0.0,0.0,0.0,0.0,0.0,0.0,0.0,0.0,-0.485,-0.568,7.65,0.0,0.0,0.0,0.0,0.0,0.0,0.0,0.0,0.0
1576083345243591155,966,0,,0.0,0.0,0.0,0.0,0.0,0.0,0.0,0.0,0.0,0.0,0.0,0.0,0.0,-0.002,-0.053,0.48,0.0,0.0,0.0,0.0,0.0,0.0,0.0,0.0,0.0,0.203,-1.001,10.92,0.0,0.0,0.0,0.0,0.0,0.0,0.0,0.0,0.0
1576083345367921742,967,0,,0.0,0.0,0.0,0.0,0.0,0.0,0.0,0.0,0.0,0.0,0.0,0.0,0.0,-0.019,-0.01,0.25,0.0,0.0,0.0,0.0,0.0,0.0,0.0,0.0,0.0,-0.258,-0.444,13.0,0.0,0.0,0.0,0.0,0.0,0.0,0.0,0.0,0.0
1576083345431629812,968,0,,0.0,0.0,0.0,0.0,0.0,0.0,0.0,0.0,0.0,0.0,0.0,0.0,0.0,0.013,-0.017,0.32,0.0,0.0,0.0,0.0,0.0,0.0,0.0,0.0,0.0,-0.286,-0.521,14.66,0.0,0.0,0.0,0.0,0.0,0.0,0.0,0.0,0.0
1576083345499631058,969,0,,0.0,0.0,0.0,0.0,0.0,0.0,0.0,0.0,0.0,0.0,0.0,0.0,0.0,-0.003,0.063,0.42,0.0,0.0,0.0,0.0,0.0,0.0,0.0,0.0,0.0,0.312,1.453,16.91,0.0,0.0,0.0,0.0,0.0,0.0,0.0,0.0,0.0
1576083345574586530,970,0,,0.0,0.0,0.0,0.0,0.0,0.0,0.0,0.0,0.0,0.0,0.0,0.0,0.0,-0.103,0.021,0.37,0.0,0.0,0.0,0.0,0.0,0.0,0.0,0.0,0.0,0.018,-0.436,5.83,0.0,0.0,0.0,0.0,0.0,0.0,0.0,0.0,0.0
1576083345633181963,971,0,,0.0,0.0,0.0,0.0,0.0,0.0,0.0,0.0,0.0,0.0,0.0,0.0,0.0,0.004,-0.018,0.29,0.0,0.0,0.0,0.0,0.0,0.0,0.0,0.0,0.0,0.028,-1.509,9.21,0.0,0.0,0.0,0.0,0.0,0.0,0.0,0.0,0.0
1576083345700711972,972,0,,0.0,0.0,0.0,0.0,0.0,0.0,0.0,0.0,0.0,0.0,0.0,0.0,0.0,-0.011,0.045,0.29,0.0,0.0,0.0,0.0,0.0,0.0,0.0,0.0,0.0,-0.577,0.082,8.48,0.0,0.0,0.0,0.0,0.0,0.0,0.0,0.0,0.0
1576083345773578205,973,0,,0.0,0.0,0.0,0.0,0.0,0.0,0.0,0.0,0.0,0.0,0.0,0.0,0.0,0.033,0.038,0.45,0.0,0.0,0.0,0.0,0.0,0.0,0.0,0.0,0.0,-0.107,0.546,12.0,0.0,0.0,0.0,0.0,0.0,0.0,0.0,0.0,0.0
1576083345834375490,974,0,,0.0,0.0,0.0,0.0,0.0,0.0,0.0,0.0,0.0,0.0,0.0,0.0,0.0,0.095,-0.011,0.43,0.0,0.0,0.0,0.0,0.0,0.0,0.0,0.0,0.0,0.604,0.593,9.87,0.0,0.0,0.0,0.0,0.0,0.0,0.0,0.0,0.0
1576083345903694486,975,0,,0.0,0.0,0.0,0.0,0.0,0.0,0.0,0.0,0.0,0.0,0.0,0.0,0.0,-0.024,0.03,0.35,0.0,0.0,0.0,0.0,0.0,0.0,0.0,0.0,0.0,-0.72,-0.026,10.67,0.0,0.0,0.0,0.0,0.0,0.0,0.0,0.0,0.0
1576083345972022168,976,0,,0.0,0.0,0.0,0.0,0.0,0.0,0.0,0.0,0.0,0.0,0.0,0.0,0.0,-0.045,0.009,0.29,0.0,0.0,0.0,0.0,0.0,0.0,0.0,0.0,0.0,-0.157,0.018,7.83,0.0,0.0,0.0,0.0,0.0,0.0,0.0,0.0,0.0
1576083346037589754,977,0,,0.0,0.0,0.0,0.0,0.0,0.0,0.0,0.0,0.0,0.0,0.0,0.0,0.0,0.054,-0.022,0.27,0.0,0.0,0.0,0.0,0.0,0.0,0.0,0.0,0.0,-0.034,0.806,8.73,0.0,0.0,0.0,0.0,0.0,0.0,0.0,0.0,0.0
1576083346104888270,978,0,,0.0,0.0,0.0,0.0,0.0,0.0,0.0,0.0,0.0,0.0,0.0,0.0,0.0,0.018,-0.003,0.35,0.0,0.0,0.0,0.0,0.0,0.0,0.0,0.0,0.0,-0.515,-0.693,8.68,0.0,0.0,0.0,0.0,0.0,0.0,0.0,0.0,0.0
1576083346172457881,979,0,,0.0,0.0,0.0,0.0,0.0,0.0,0.0,0.0,0.0,0.0,0.0,0.0,0.0,0.049,0.039,0.35,0.0,0.0,0.0,0.0,0.0,0.0,0.0,0.0,0.0,-0.338,-0.461,7.71,0.0,0.0,0.0,0.0,0.0,0.0,0.0,0.0,0.0
1576083346306702227,980,0,,0.0,0.0,0.0,0.0,0.0,0.0,0.0,0.0,0.0,0.0,0.0,0.0,0.0,-0.015,-0.048,-0.07,0.0,0.0,0.0,0.0,0.0,0.0,0.0,0.0,0.0,0.495,-2.522,13.65,0.0,0.0,0.0,0.0,0.0,0.0,0.0,0.0,0.0
1576083346372672817,981,0,,0.0,0.0,0.0,0.0,0.0,0.0,0.0,0.0,0.0,0.0,0.0,0.0,0.0,-0.037,-0.105,0.39,0.0,0.0,0.0,0.0,0.0,0.0,0.0,0.0,0.0,-2.803,0.774,13.75,0.0,0.0,0.0,0.0,0.0,0.0,0.0,0.0,0.0
1576083346443440055,982,0,,0.0,0.0,0.0,0.0,0.0,0.0,0.0,0.0,0.0,0.0,0.0,0.0,0.0,-0.035,-0.072,0.23,0.0,0.0,0.0,0.0,0.0,0.0,0.0,0.0,0.0,1.175,0.375,6.49,0.0,0.0,0.0,0.0,0.0,0.0,0.0,0.0,0.0
1576083346564801053,983,0,,0.0,0.0,0.0,0.0,0.0,0.0,0.0,0.0,0.0,0.0,0.0,0.0,0.0,0.094,0.118,0.21,0.0,0.0,0.0,0.0,0.0,0.0,0.0,0.0,0.0,-1.807,1.003,14.17,0.0,0.0,0.0,0.0,0.0,0.0,0.0,0.0,0.0
1576083346635485974,984,0,,0.0,0.0,0.0,0.0,0.0,0.0,0.0,0.0,0.0,0.0,0.0,0.0,0.0,-0.121,-0.112,0.24,0.0,0.0,0.0,0.0,0.0,0.0,0.0,0.0,0.0,0.811,0.289,8.37,0.0,0.0,0.0,0.0,0.0,0.0,0.0,0.0,0.0
1576083346699779232,985,0,,0.0,0.0,0.0,0.0,0.0,0.0,0.0,0.0,0.0,0.0,0.0,0.0,0.0,-0.173,0.087,0.33,0.0,0.0,0.0,0.0,0.0,0.0,0.0,0.0,0.0,-1.563,-3.263,16.12,0.0,0.0,0.0,0.0,0.0,0.0,0.0,0.0,0.0
1576083346770820393,986,0,,0.0,0.0,0.0,0.0,0.0,0.0,0.0,0.0,0.0,0.0,0.0,0.0,0.0,-0.068,0.019,-0.44,0.0,0.0,0.0,0.0,0.0,0.0,0.0,0.0,0.0,-0.475,0.674,14.81,0.0,0.0,0.0,0.0,0.0,0.0,0.0,0.0,0.0
1576083346837377032,987,0,,0.0,0.0,0.0,0.0,0.0,0.0,0.0,0.0,0.0,0.0,0.0,0.0,0.0,0.251,0.073,-0.29,0.0,0.0,0.0,0.0,0.0,0.0,0.0,0.0,0.0,-0.77,0.828,16.4,0.0,0.0,0.0,0.0,0.0,0.0,0.0,0.0,0.0
1576083346900252197,988,0,,0.0,0.0,0.0,0.0,0.0,0.0,0.0,0.0,0.0,0.0,0.0,0.0,0.0,-0.067,-0.08,0.49,0.0,0.0,0.0,0.0,0.0,0.0,0.0,0.0,0.0,-2.011,-0.929,9.97,0.0,0.0,0.0,0.0,0.0,0.0,0.0,0.0,0.0
1576083346976558142,989,0,,0.0,0.0,0.0,0.0,0.0,0.0,0.0,0.0,0.0,0.0,0.0,0.0,0.0,0.066,-0.056,0.39,0.0,0.0,0.0,0.0,0.0,0.0,0.0,0.0,0.0,0.691,1.063,10.72,0.0,0.0,0.0,0.0,0.0,0.0,0.0,0.0,0.0
1576083347036497771,990,0,,0.0,0.0,0.0,0.0,0.0,0.0,0.0,0.0,0.0,0.0,0.0,0.0,0.0,0.063,0.043,0.35,0.0,0.0,0.0,0.0,0.0,0.0,0.0,0.0,0.0,-0.763,0.262,13.81,0.0,0.0,0.0,0.0,0.0,0.0,0.0,0.0,0.0
1576083347105429880,991,0,,0.0,0.0,0.0,0.0,0.0,0.0,0.0,0.0,0.0,0.0,0.0,0.0,0.0,-0.029,-0.005,0.32,0.0,0.0,0.0,0.0,0.0,0.0,0.0,0.0,0.0,-0.199,-0.783,8.84,0.0,0.0,0.0,0.0,0.0,0.0,0.0,0.0,0.0
1576083347191855013,992,0,,0.0,0.0,0.0,0.0,0.0,0.0,0.0,0.0,0.0,0.0,0.0,0.0,0.0,0.003,0.029,0.2,0.0,0.0,0.0,0.0,0.0,0.0,0.0,0.0,0.0,-0.403,-0.361,9.65,0.0,0.0,0.0,0.0,0.0,0.0,0.0,0.0,0.0
1576083347235980878,993,0,,0.0,0.0,0.0,0.0,0.0,0.0,0.0,0.0,0.0,0.0,0.0,0.0,0.0,-0.09,0.009,0.32,0.0,0.0,0.0,0.0,0.0,0.0,0.0,0.0,0.0,-0.954,-0.642,9.09,0.0,0.0,0.0,0.0,0.0,0.0,0.0,0.0,0.0
1576083347309095386,994,0,,0.0,0.0,0.0,0.0,0.0,0.0,0.0,0.0,0.0,0.0,0.0,0.0,0.0,-0.09,0.023,0.36,0.0,0.0,0.0,0.0,0.0,0.0,0.0,0.0,0.0,-0.265,-0.703,9.23,0.0,0.0,0.0,0.0,0.0,0.0,0.0,0.0,0.0
1576083347374803057,995,0,,0.0,0.0,0.0,0.0,0.0,0.0,0.0,0.0,0.0,0.0,0.0,0.0,0.0,-0.106,0.05,0.52,0.0,0.0,0.0,0.0,0.0,0.0,0.0,0.0,0.0,0.067,-0.152,10.03,0.0,0.0,0.0,0.0,0.0,0.0,0.0,0.0,0.0
1576083347506883344,996,0,,0.0,0.0,0.0,0.0,0.0,0.0,0.0,0.0,0.0,0.0,0.0,0.0,0.0,0.112,-0.031,0.52,0.0,0.0,0.0,0.0,0.0,0.0,0.0,0.0,0.0,0.502,0.669,10.69,0.0,0.0,0.0,0.0,0.0,0.0,0.0,0.0,0.0
1576083347575818046,997,0,,0.0,0.0,0.0,0.0,0.0,0.0,0.0,0.0,0.0,0.0,0.0,0.0,0.0,0.077,0.024,0.31,0.0,0.0,0.0,0.0,0.0,0.0,0.0,0.0,0.0,-0.904,0.78,18.14,0.0,0.0,0.0,0.0,0.0,0.0,0.0,0.0,0.0
1576083347640183166,998,0,,0.0,0.0,0.0,0.0,0.0,0.0,0.0,0.0,0.0,0.0,0.0,0.0,0.0,-0.114,-0.062,0.19,0.0,0.0,0.0,0.0,0.0,0.0,0.0,0.0,0.0,-0.868,1.351,7.05,0.0,0.0,0.0,0.0,0.0,0.0,0.0,0.0,0.0
1576083347710927320,999,0,,0.0,0.0,0.0,0.0,0.0,0.0,0.0,0.0,0.0,0.0,0.0,0.0,0.0,0.154,0.052,0.04,0.0,0.0,0.0,0.0,0.0,0.0,0.0,0.0,0.0,0.389,-1.647,1.26,0.0,0.0,0.0,0.0,0.0,0.0,0.0,0.0,0.0
1576083347831359291,1000,0,,0.0,0.0,0.0,0.0,0.0,0.0,0.0,0.0,0.0,0.0,0.0,0.0,0.0,-0.084,-0.062,0.38,0.0,0.0,0.0,0.0,0.0,0.0,0.0,0.0,0.0,-0.622,-0.182,4.49,0.0,0.0,0.0,0.0,0.0,0.0,0.0,0.0,0.0
1576083347902239126,1001,0,,0.0,0.0,0.0,0.0,0.0,0.0,0.0,0.0,0.0,0.0,0.0,0.0,0.0,-0.016,-0.021,0.37,0.0,0.0,0.0,0.0,0.0,0.0,0.0,0.0,0.0,-0.473,-1.587,11.25,0.0,0.0,0.0,0.0,0.0,0.0,0.0,0.0,0.0
1576083347996165133,1002,0,,0.0,0.0,0.0,0.0,0.0,0.0,0.0,0.0,0.0,0.0,0.0,0.0,0.0,-0.004,0.049,0.39,0.0,0.0,0.0,0.0,0.0,0.0,0.0,0.0,0.0,-1.107,0.182,11.34,0.0,0.0,0.0,0.0,0.0,0.0,0.0,0.0,0.0
1576083348032491765,1003,0,,0.0,0.0,0.0,0.0,0.0,0.0,0.0,0.0,0.0,0.0,0.0,0.0,0.0,-0.037,0.003,0.42,0.0,0.0,0.0,0.0,0.0,0.0,0.0,0.0,0.0,-1.0,-0.095,8.7,0.0,0.0,0.0,0.0,0.0,0.0,0.0,0.0,0.0
1576083348102459857,1004,0,,0.0,0.0,0.0,0.0,0.0,0.0,0.0,0.0,0.0,0.0,0.0,0.0,0.0,-0.1,-0.038,0.23,0.0,0.0,0.0,0.0,0.0,0.0,0.0,0.0,0.0,-0.326,-1.185,15.35,0.0,0.0,0.0,0.0,0.0,0.0,0.0,0.0,0.0
1576083348170232555,1005,0,,0.0,0.0,0.0,0.0,0.0,0.0,0.0,0.0,0.0,0.0,0.0,0.0,0.0,-0.022,-0.069,0.27,0.0,0.0,0.0,0.0,0.0,0.0,0.0,0.0,0.0,-0.07,1.201,9.51,0.0,0.0,0.0,0.0,0.0,0.0,0.0,0.0,0.0
1576083348236054595,1006,0,,0.0,0.0,0.0,0.0,0.0,0.0,0.0,0.0,0.0,0.0,0.0,0.0,0.0,-0.044,-0.069,0.47,0.0,0.0,0.0,0.0,0.0,0.0,0.0,0.0,0.0,0.382,-0.577,12.63,0.0,0.0,0.0,0.0,0.0,0.0,0.0,0.0,0.0
1576083348304603220,1007,0,,0.0,0.0,0.0,0.0,0.0,0.0,0.0,0.0,0.0,0.0,0.0,0.0,0.0,-0.066,-0.022,0.34,0.0,0.0,0.0,0.0,0.0,0.0,0.0,0.0,0.0,-0.645,0.596,6.65,0.0,0.0,0.0,0.0,0.0,0.0,0.0,0.0,0.0
1576083348372528067,1008,0,,0.0,0.0,0.0,0.0,0.0,0.0,0.0,0.0,0.0,0.0,0.0,0.0,0.0,0.137,0.06,0.32,0.0,0.0,0.0,0.0,0.0,0.0,0.0,0.0,0.0,1.247,1.125,7.81,0.0,0.0,0.0,0.0,0.0,0.0,0.0,0.0,0.0
1576083348437801769,1009,0,,0.0,0.0,0.0,0.0,0.0,0.0,0.0,0.0,0.0,0.0,0.0,0.0,0.0,-0.074,-0.092,-0.03,0.0,0.0,0.0,0.0,0.0,0.0,0.0,0.0,0.0,-0.303,0.29,11.49,0.0,0.0,0.0,0.0,0.0,0.0,0.0,0.0,0.0
1576083348508075502,1010,0,,0.0,0.0,0.0,0.0,0.0,0.0,0.0,0.0,0.0,0.0,0.0,0.0,0.0,-0.035,-0.073,0.12,0.0,0.0,0.0,0.0,0.0,0.0,0.0,0.0,0.0,1.552,-1.972,8.07,0.0,0.0,0.0,0.0,0.0,0.0,0.0,0.0,0.0
1576083348570046846,1011,0,,0.0,0.0,0.0,0.0,0.0,0.0,0.0,0.0,0.0,0.0,0.0,0.0,0.0,0.1,0.429,0.06,0.0,0.0,0.0,0.0,0.0,0.0,0.0,0.0,0.0,-1.784,-0.178,17.97,0.0,0.0,0.0,0.0,0.0,0.0,0.0,0.0,0.0
1576083348640891521,1012,0,,0.0,0.0,0.0,0.0,0.0,0.0,0.0,0.0,0.0,0.0,0.0,0.0,0.0,0.037,-0.18,0.32,0.0,0.0,0.0,0.0,0.0,0.0,0.0,0.0,0.0,-0.362,-3.953,5.75,0.0,0.0,0.0,0.0,0.0,0.0,0.0,0.0,0.0
1576083348772463675,1013,0,,0.0,0.0,0.0,0.0,0.0,0.0,0.0,0.0,0.0,0.0,0.0,0.0,0.0,0.056,-0.046,0.3,0.0,0.0,0.0,0.0,0.0,0.0,0.0,0.0,0.0,-0.831,-0.033,12.48,0.0,0.0,0.0,0.0,0.0,0.0,0.0,0.0,0.0
1576083348930956584,1014,0,,0.0,0.0,0.0,0.0,0.0,0.0,0.0,0.0,0.0,0.0,0.0,0.0,0.0,-0.016,0.007,0.1,0.0,0.0,0.0,0.0,0.0,0.0,0.0,0.0,0.0,-0.715,-0.062,8.15,0.0,0.0,0.0,0.0,0.0,0.0,0.0,0.0,0.0
1576083349034727948,1015,0,,0.0,0.0,0.0,0.0,0.0,0.0,0.0,0.0,0.0,0.0,0.0,0.0,0.0,-0.054,0.008,0.01,0.0,0.0,0.0,0.0,0.0,0.0,0.0,0.0,0.0,-0.158,0.583,11.05,0.0,0.0,0.0,0.0,0.0,0.0,0.0,0.0,0.0
1576083349099761237,1016,0,,0.0,0.0,0.0,0.0,0.0,0.0,0.0,0.0,0.0,0.0,0.0,0.0,0.0,-0.013,-0.012,0.01,0.0,0.0,0.0,0.0,0.0,0.0,0.0,0.0,0.0,0.208,0.177,8.61,0.0,0.0,0.0,0.0,0.0,0.0,0.0,0.0,0.0
1576083349167604835,1017,0,,0.0,0.0,0.0,0.0,0.0,0.0,0.0,0.0,0.0,0.0,0.0,0.0,0.0,0.029,-0.014,0.08,0.0,0.0,0.0,0.0,0.0,0.0,0.0,0.0,0.0,-0.502,-0.677,10.23,0.0,0.0,0.0,0.0,0.0,0.0,0.0,0.0,0.0
1576083349231910765,1018,0,,0.0,0.0,0.0,0.0,0.0,0.0,0.0,0.0,0.0,0.0,0.0,0.0,0.0,-0.024,0.014,0.0,0.0,0.0,0.0,0.0,0.0,0.0,0.0,0.0,0.0,-0.153,0.072,8.95,0.0,0.0,0.0,0.0,0.0,0.0,0.0,0.0,0.0
1576083349307323200,1019,0,,0.0,0.0,0.0,0.0,0.0,0.0,0.0,0.0,0.0,0.0,0.0,0.0,0.0,0.01,-0.001,-0.01,0.0,0.0,0.0,0.0,0.0,0.0,0.0,0.0,0.0,-0.21,-0.816,7.1,0.0,0.0,0.0,0.0,0.0,0.0,0.0,0.0,0.0
1576083349372369737,1020,0,,0.0,0.0,0.0,0.0,0.0,0.0,0.0,0.0,0.0,0.0,0.0,0.0,0.0,-0.012,-0.014,-0.05,0.0,0.0,0.0,0.0,0.0,0.0,0.0,0.0,0.0,-0.06,-0.619,10.94,0.0,0.0,0.0,0.0,0.0,0.0,0.0,0.0,0.0
1576083349435874535,1021,0,,0.0,0.0,0.0,0.0,0.0,0.0,0.0,0.0,0.0,0.0,0.0,0.0,0.0,0.016,-0.008,-0.03,0.0,0.0,0.0,0.0,0.0,0.0,0.0,0.0,0.0,-0.054,-0.366,7.49,0.0,0.0,0.0,0.0,0.0,0.0,0.0,0.0,0.0
1576083349502909414,1022,0,,0.0,0.0,0.0,0.0,0.0,0.0,0.0,0.0,0.0,0.0,0.0,0.0,0.0,0.019,-0.003,-0.03,0.0,0.0,0.0,0.0,0.0,0.0,0.0,0.0,0.0,-0.332,0.012,12.1,0.0,0.0,0.0,0.0,0.0,0.0,0.0,0.0,0.0
1576083349570873771,1023,0,,0.0,0.0,0.0,0.0,0.0,0.0,0.0,0.0,0.0,0.0,0.0,0.0,0.0,-0.006,-0.012,0.05,0.0,0.0,0.0,0.0,0.0,0.0,0.0,0.0,0.0,-0.697,0.106,7.91,0.0,0.0,0.0,0.0,0.0,0.0,0.0,0.0,0.0
1576083349636862368,1024,0,,0.0,0.0,0.0,0.0,0.0,0.0,0.0,0.0,0.0,0.0,0.0,0.0,0.0,-0.015,-0.004,0.05,0.0,0.0,0.0,0.0,0.0,0.0,0.0,0.0,0.0,-0.126,-0.423,6.68,0.0,0.0,0.0,0.0,0.0,0.0,0.0,0.0,0.0
1576083349707514320,1025,0,,0.0,0.0,0.0,0.0,0.0,0.0,0.0,0.0,0.0,0.0,0.0,0.0,0.0,-0.004,0.0,0.11,0.0,0.0,0.0,0.0,0.0,0.0,0.0,0.0,0.0,0.366,0.403,10.62,0.0,0.0,0.0,0.0,0.0,0.0,0.0,0.0,0.0
1576083349770386824,1026,0,,0.0,0.0,0.0,0.0,0.0,0.0,0.0,0.0,0.0,0.0,0.0,0.0,0.0,-0.007,0.018,0.07,0.0,0.0,0.0,0.0,0.0,0.0,0.0,0.0,0.0,-0.274,-0.469,7.23,0.0,0.0,0.0,0.0,0.0,0.0,0.0,0.0,0.0
1576083349838123182,1027,0,,0.0,0.0,0.0,0.0,0.0,0.0,0.0,0.0,0.0,0.0,0.0,0.0,0.0,0.018,-0.007,-0.02,0.0,0.0,0.0,0.0,0.0,0.0,0.0,0.0,0.0,0.139,0.136,7.15,0.0,0.0,0.0,0.0,0.0,0.0,0.0,0.0,0.0
1576083349906694226,1028,0,,0.0,0.0,0.0,0.0,0.0,0.0,0.0,0.0,0.0,0.0,0.0,0.0,0.0,-0.003,-0.004,-0.03,0.0,0.0,0.0,0.0,0.0,0.0,0.0,0.0,0.0,0.148,0.283,11.24,0.0,0.0,0.0,0.0,0.0,0.0,0.0,0.0,0.0
1576083349972402106,1029,0,,0.0,0.0,0.0,0.0,0.0,0.0,0.0,0.0,0.0,0.0,0.0,0.0,0.0,-0.009,-0.003,-0.05,0.0,0.0,0.0,0.0,0.0,0.0,0.0,0.0,0.0,-0.171,-0.169,8.57,0.0,0.0,0.0,0.0,0.0,0.0,0.0,0.0,0.0
1576083350040233534,1030,0,,0.0,0.0,0.0,0.0,0.0,0.0,0.0,0.0,0.0,0.0,0.0,0.0,0.0,0.028,0.025,-0.02,0.0,0.0,0.0,0.0,0.0,0.0,0.0,0.0,0.0,0.433,0.786,9.57,0.0,0.0,0.0,0.0,0.0,0.0,0.0,0.0,0.0
1576083350106680507,1031,0,,0.0,0.0,0.0,0.0,0.0,0.0,0.0,0.0,0.0,0.0,0.0,0.0,0.0,-0.012,-0.006,-0.11,0.0,0.0,0.0,0.0,0.0,0.0,0.0,0.0,0.0,-0.039,-0.414,9.04,0.0,0.0,0.0,0.0,0.0,0.0,0.0,0.0,0.0
1576083350171742077,1032,0,,0.0,0.0,0.0,0.0,0.0,0.0,0.0,0.0,0.0,0.0,0.0,0.0,0.0,0.008,0.062,-0.36,0.0,0.0,0.0,0.0,0.0,0.0,0.0,0.0,0.0,1.081,1.42,8.89,0.0,0.0,0.0,0.0,0.0,0.0,0.0,0.0,0.0
1576083350300137794,1033,0,,0.0,0.0,0.0,0.0,0.0,0.0,0.0,0.0,0.0,0.0,0.0,0.0,0.0,0.083,-0.053,0.01,0.0,0.0,0.0,0.0,0.0,0.0,0.0,0.0,0.0,-0.171,-0.84,6.46,0.0,0.0,0.0,0.0,0.0,0.0,0.0,0.0,0.0
1576083350368876172,1034,0,,0.0,0.0,0.0,0.0,0.0,0.0,0.0,0.0,0.0,0.0,0.0,0.0,0.0,-0.026,0.007,-0.12,0.0,0.0,0.0,0.0,0.0,0.0,0.0,0.0,0.0,1.344,0.749,12.8,0.0,0.0,0.0,0.0,0.0,0.0,0.0,0.0,0.0
1576083350433248507,1035,0,,0.0,0.0,0.0,0.0,0.0,0.0,0.0,0.0,0.0,0.0,0.0,0.0,0.0,-0.027,0.057,-0.02,0.0,0.0,0.0,0.0,0.0,0.0,0.0,0.0,0.0,-1.274,-1.047,12.49,0.0,0.0,0.0,0.0,0.0,0.0,0.0,0.0,0.0
1576083350499809901,1036,0,,0.0,0.0,0.0,0.0,0.0,0.0,0.0,0.0,0.0,0.0,0.0,0.0,0.0,-0.054,-0.056,0.07,0.0,0.0,0.0,0.0,0.0,0.0,0.0,0.0,0.0,0.036,-0.381,11.31,0.0,0.0,0.0,0.0,0.0,0.0,0.0,0.0,0.0
1576083350569299795,1037,0,,0.0,0.0,0.0,0.0,0.0,0.0,0.0,0.0,0.0,0.0,0.0,0.0,0.0,-0.023,-0.025,0.13,0.0,0.0,0.0,0.0,0.0,0.0,0.0,0.0,0.0,-0.416,-1.187,11.92,0.0,0.0,0.0,0.0,0.0,0.0,0.0,0.0,0.0
1576083350638640935,1038,0,,0.0,0.0,0.0,0.0,0.0,0.0,0.0,0.0,0.0,0.0,0.0,0.0,0.0,-0.033,-0.01,0.17,0.0,0.0,0.0,0.0,0.0,0.0,0.0,0.0,0.0,-0.269,0.254,8.13,0.0,0.0,0.0,0.0,0.0,0.0,0.0,0.0,0.0
1576083350702554262,1039,0,,0.0,0.0,0.0,0.0,0.0,0.0,0.0,0.0,0.0,0.0,0.0,0.0,0.0,-0.023,0.003,0.14,0.0,0.0,0.0,0.0,0.0,0.0,0.0,0.0,0.0,-0.375,-1.658,10.12,0.0,0.0,0.0,0.0,0.0,0.0,0.0,0.0,0.0
1576083350772727418,1040,0,,0.0,0.0,0.0,0.0,0.0,0.0,0.0,0.0,0.0,0.0,0.0,0.0,0.0,-0.016,-0.001,0.05,0.0,0.0,0.0,0.0,0.0,0.0,0.0,0.0,0.0,0.346,0.818,9.35,0.0,0.0,0.0,0.0,0.0,0.0,0.0,0.0,0.0
1576083350834625506,1041,0,,0.0,0.0,0.0,0.0,0.0,0.0,0.0,0.0,0.0,0.0,0.0,0.0,0.0,0.05,-0.012,0.1,0.0,0.0,0.0,0.0,0.0,0.0,0.0,0.0,0.0,0.569,-0.419,8.72,0.0,0.0,0.0,0.0,0.0,0.0,0.0,0.0,0.0
1576083350906289807,1042,0,,0.0,0.0,0.0,0.0,0.0,0.0,0.0,0.0,0.0,0.0,0.0,0.0,0.0,-0.025,0.012,0.02,0.0,0.0,0.0,0.0,0.0,0.0,0.0,0.0,0.0,0.254,-0.742,10.94,0.0,0.0,0.0,0.0,0.0,0.0,0.0,0.0,0.0
1576083350972657411,1043,0,,0.0,0.0,0.0,0.0,0.0,0.0,0.0,0.0,0.0,0.0,0.0,0.0,0.0,0.019,-0.009,-0.02,0.0,0.0,0.0,0.0,0.0,0.0,0.0,0.0,0.0,0.54,0.395,9.72,0.0,0.0,0.0,0.0,0.0,0.0,0.0,0.0,0.0
1576083351040469999,1044,0,,0.0,0.0,0.0,0.0,0.0,0.0,0.0,0.0,0.0,0.0,0.0,0.0,0.0,0.023,0.004,-0.04,0.0,0.0,0.0,0.0,0.0,0.0,0.0,0.0,0.0,0.145,-0.731,12.64,0.0,0.0,0.0,0.0,0.0,0.0,0.0,0.0,0.0
1576083351107368202,1045,0,,0.0,0.0,0.0,0.0,0.0,0.0,0.0,0.0,0.0,0.0,0.0,0.0,0.0,0.018,-0.016,-0.09,0.0,0.0,0.0,0.0,0.0,0.0,0.0,0.0,0.0,-0.102,-0.088,10.92,0.0,0.0,0.0,0.0,0.0,0.0,0.0,0.0,0.0
1576083351173344462,1046,0,,0.0,0.0,0.0,0.0,0.0,0.0,0.0,0.0,0.0,0.0,0.0,0.0,0.0,0.014,0.009,-0.07,0.0,0.0,0.0,0.0,0.0,0.0,0.0,0.0,0.0,0.085,-0.232,7.2,0.0,0.0,0.0,0.0,0.0,0.0,0.0,0.0,0.0
1576083351239933630,1047,0,,0.0,0.0,0.0,0.0,0.0,0.0,0.0,0.0,0.0,0.0,0.0,0.0,0.0,0.045,-0.03,-0.04,0.0,0.0,0.0,0.0,0.0,0.0,0.0,0.0,0.0,-0.315,-0.525,7.83,0.0,0.0,0.0,0.0,0.0,0.0,0.0,0.0,0.0
1576083351373706976,1048,0,,0.0,0.0,0.0,0.0,0.0,0.0,0.0,0.0,0.0,0.0,0.0,0.0,0.0,-0.015,-0.01,0.02,0.0,0.0,0.0,0.0,0.0,0.0,0.0,0.0,0.0,-0.356,-0.456,5.99,0.0,0.0,0.0,0.0,0.0,0.0,0.0,0.0,0.0
1576083351501041405,1049,0,,0.0,0.0,0.0,0.0,0.0,0.0,0.0,0.0,0.0,0.0,0.0,0.0,0.0,0.001,-0.011,0.09,0.0,0.0,0.0,0.0,0.0,0.0,0.0,0.0,0.0,-0.429,0.053,10.21,0.0,0.0,0.0,0.0,0.0,0.0,0.0,0.0,0.0
1576083351567805229,1050,0,,0.0,0.0,0.0,0.0,0.0,0.0,0.0,0.0,0.0,0.0,0.0,0.0,0.0,-0.007,0.004,0.05,0.0,0.0,0.0,0.0,0.0,0.0,0.0,0.0,0.0,-0.408,-0.63,8.76,0.0,0.0,0.0,0.0,0.0,0.0,0.0,0.0,0.0
1576083351634605161,1051,0,,0.0,0.0,0.0,0.0,0.0,0.0,0.0,0.0,0.0,0.0,0.0,0.0,0.0,0.013,-0.017,0.03,0.0,0.0,0.0,0.0,0.0,0.0,0.0,0.0,0.0,0.504,1.058,8.78,0.0,0.0,0.0,0.0,0.0,0.0,0.0,0.0,0.0
1576083351725156763,1052,0,,0.0,0.0,0.0,0.0,0.0,0.0,0.0,0.0,0.0,0.0,0.0,0.0,0.0,0.001,0.211,-0.08,0.0,0.0,0.0,0.0,0.0,0.0,0.0,0.0,0.0,-0.103,-1.371,5.52,0.0,0.0,0.0,0.0,0.0,0.0,0.0,0.0,0.0
1576083351777539795,1053,0,,0.0,0.0,0.0,0.0,0.0,0.0,0.0,0.0,0.0,0.0,0.0,0.0,0.0,-0.118,-0.15,-0.15,0.0,0.0,0.0,0.0,0.0,0.0,0.0,0.0,0.0,0.476,0.006,10.51,0.0,0.0,0.0,0.0,0.0,0.0,0.0,0.0,0.0
1576083351836091879,1054,0,,0.0,0.0,0.0,0.0,0.0,0.0,0.0,0.0,0.0,0.0,0.0,0.0,0.0,-0.006,-0.029,-0.05,0.0,0.0,0.0,0.0,0.0,0.0,0.0,0.0,0.0,0.433,-0.345,7.82,0.0,0.0,0.0,0.0,0.0,0.0,0.0,0.0,0.0
1576083351904250778,1055,0,,0.0,0.0,0.0,0.0,0.0,0.0,0.0,0.0,0.0,0.0,0.0,0.0,0.0,-0.064,-0.006,-0.13,0.0,0.0,0.0,0.0,0.0,0.0,0.0,0.0,0.0,0.317,0.425,4.88,0.0,0.0,0.0,0.0,0.0,0.0,0.0,0.0,0.0
1576083351970784399,1056,0,,0.0,0.0,0.0,0.0,0.0,0.0,0.0,0.0,0.0,0.0,0.0,0.0,0.0,0.05,0.072,-0.13,0.0,0.0,0.0,0.0,0.0,0.0,0.0,0.0,0.0,-0.843,-0.773,8.92,0.0,0.0,0.0,0.0,0.0,0.0,0.0,0.0,0.0
1576083352043955432,1057,0,,0.0,0.0,0.0,0.0,0.0,0.0,0.0,0.0,0.0,0.0,0.0,0.0,0.0,-0.125,-0.024,-0.02,0.0,0.0,0.0,0.0,0.0,0.0,0.0,0.0,0.0,-0.759,-0.032,6.45,0.0,0.0,0.0,0.0,0.0,0.0,0.0,0.0,0.0
1576083352108461594,1058,0,,0.0,0.0,0.0,0.0,0.0,0.0,0.0,0.0,0.0,0.0,0.0,0.0,0.0,0.004,-0.011,0.06,0.0,0.0,0.0,0.0,0.0,0.0,0.0,0.0,0.0,-0.308,-1.463,10.4,0.0,0.0,0.0,0.0,0.0,0.0,0.0,0.0,0.0
1576083352183875729,1059,0,,0.0,0.0,0.0,0.0,0.0,0.0,0.0,0.0,0.0,0.0,0.0,0.0,0.0,0.053,-0.001,0.12,0.0,0.0,0.0,0.0,0.0,0.0,0.0,0.0,0.0,-0.113,0.197,9.09,0.0,0.0,0.0,0.0,0.0,0.0,0.0,0.0,0.0
1576083352236552929,1060,0,,0.0,0.0,0.0,0.0,0.0,0.0,0.0,0.0,0.0,0.0,0.0,0.0,0.0,0.054,0.001,0.18,0.0,0.0,0.0,0.0,0.0,0.0,0.0,0.0,0.0,-0.086,0.426,7.78,0.0,0.0,0.0,0.0,0.0,0.0,0.0,0.0,0.0
1576083352305438813,1061,0,,0.0,0.0,0.0,0.0,0.0,0.0,0.0,0.0,0.0,0.0,0.0,0.0,0.0,0.009,-0.016,0.11,0.0,0.0,0.0,0.0,0.0,0.0,0.0,0.0,0.0,0.591,-0.154,7.08,0.0,0.0,0.0,0.0,0.0,0.0,0.0,0.0,0.0
1576083352439449952,1062,0,,0.0,0.0,0.0,0.0,0.0,0.0,0.0,0.0,0.0,0.0,0.0,0.0,0.0,-0.023,0.003,0.03,0.0,0.0,0.0,0.0,0.0,0.0,0.0,0.0,0.0,-0.18,-1.014,8.62,0.0,0.0,0.0,0.0,0.0,0.0,0.0,0.0,0.0
1576083352506690409,1063,0,,0.0,0.0,0.0,0.0,0.0,0.0,0.0,0.0,0.0,0.0,0.0,0.0,0.0,0.006,-0.012,0.03,0.0,0.0,0.0,0.0,0.0,0.0,0.0,0.0,0.0,0.581,0.428,7.75,0.0,0.0,0.0,0.0,0.0,0.0,0.0,0.0,0.0
1576083352586683771,1064,0,,0.0,0.0,0.0,0.0,0.0,0.0,0.0,0.0,0.0,0.0,0.0,0.0,0.0,0.035,0.001,0.03,0.0,0.0,0.0,0.0,0.0,0.0,0.0,0.0,0.0,-0.519,-0.428,6.48,0.0,0.0,0.0,0.0,0.0,0.0,0.0,0.0,0.0
1576083352640194753,1065,0,,0.0,0.0,0.0,0.0,0.0,0.0,0.0,0.0,0.0,0.0,0.0,0.0,0.0,0.07,0.006,0.03,0.0,0.0,0.0,0.0,0.0,0.0,0.0,0.0,0.0,0.693,-0.588,11.97,0.0,0.0,0.0,0.0,0.0,0.0,0.0,0.0,0.0
1576083352781984397,1066,0,,0.0,0.0,0.0,0.0,0.0,0.0,0.0,0.0,0.0,0.0,0.0,0.0,0.0,0.009,0.006,-0.0,0.0,0.0,0.0,0.0,0.0,0.0,0.0,0.0,0.0,0.246,-1.036,9.71,0.0,0.0,0.0,0.0,0.0,0.0,0.0,0.0,0.0
1576083352835940277,1067,0,,0.0,0.0,0.0,0.0,0.0,0.0,0.0,0.0,0.0,0.0,0.0,0.0,0.0,0.01,0.01,-0.02,0.0,0.0,0.0,0.0,0.0,0.0,0.0,0.0,0.0,0.559,-0.246,9.02,0.0,0.0,0.0,0.0,0.0,0.0,0.0,0.0,0.0
1576083352902209882,1068,0,,0.0,0.0,0.0,0.0,0.0,0.0,0.0,0.0,0.0,0.0,0.0,0.0,0.0,-0.0,0.0,-0.02,0.0,0.0,0.0,0.0,0.0,0.0,0.0,0.0,0.0,-0.711,0.394,10.74,0.0,0.0,0.0,0.0,0.0,0.0,0.0,0.0,0.0
1576083352995237866,1069,0,,0.0,0.0,0.0,0.0,0.0,0.0,0.0,0.0,0.0,0.0,0.0,0.0,0.0,-0.015,0.0,0.0,0.0,0.0,0.0,0.0,0.0,0.0,0.0,0.0,0.0,-2.853,-9.334,24.82,0.0,0.0,0.0,0.0,0.0,0.0,0.0,0.0,0.0
1576083353035480706,1070,0,,0.0,0.0,0.0,0.0,0.0,0.0,0.0,0.0,0.0,0.0,0.0,0.0,0.0,0.021,-0.017,0.06,0.0,0.0,0.0,0.0,0.0,0.0,0.0,0.0,0.0,1.694,-0.173,12.01,0.0,0.0,0.0,0.0,0.0,0.0,0.0,0.0,0.0
1576083353102099810,1071,0,,0.0,0.0,0.0,0.0,0.0,0.0,0.0,0.0,0.0,0.0,0.0,0.0,0.0,-0.032,-0.003,0.16,0.0,0.0,0.0,0.0,0.0,0.0,0.0,0.0,0.0,-0.609,-0.269,9.98,0.0,0.0,0.0,0.0,0.0,0.0,0.0,0.0,0.0
1576083353183404456,1072,0,,0.0,0.0,0.0,0.0,0.0,0.0,0.0,0.0,0.0,0.0,0.0,0.0,0.0,-0.044,0.041,0.1,0.0,0.0,0.0,0.0,0.0,0.0,0.0,0.0,0.0,1.181,-1.269,15.58,0.0,0.0,0.0,0.0,0.0,0.0,0.0,0.0,0.0
1576083353234873823,1073,0,,0.0,0.0,0.0,0.0,0.0,0.0,0.0,0.0,0.0,0.0,0.0,0.0,0.0,0.076,0.082,0.1,0.0,0.0,0.0,0.0,0.0,0.0,0.0,0.0,0.0,0.365,0.831,12.75,0.0,0.0,0.0,0.0,0.0,0.0,0.0,0.0,0.0
1576083353304584528,1074,0,,0.0,0.0,0.0,0.0,0.0,0.0,0.0,0.0,0.0,0.0,0.0,0.0,0.0,-0.029,-0.063,0.16,0.0,0.0,0.0,0.0,0.0,0.0,0.0,0.0,0.0,-0.393,0.056,10.08,0.0,0.0,0.0,0.0,0.0,0.0,0.0,0.0,0.0
1576083353381476029,1075,0,,0.0,0.0,0.0,0.0,0.0,0.0,0.0,0.0,0.0,0.0,0.0,0.0,0.0,0.013,-0.029,-0.04,0.0,0.0,0.0,0.0,0.0,0.0,0.0,0.0,0.0,0.093,0.002,9.7,0.0,0.0,0.0,0.0,0.0,0.0,0.0,0.0,0.0
1576083353439338710,1076,0,,0.0,0.0,0.0,0.0,0.0,0.0,0.0,0.0,0.0,0.0,0.0,0.0,0.0,-0.004,0.009,0.01,0.0,0.0,0.0,0.0,0.0,0.0,0.0,0.0,0.0,-0.612,-1.428,9.9,0.0,0.0,0.0,0.0,0.0,0.0,0.0,0.0,0.0
1576083353507695567,1077,0,,0.0,0.0,0.0,0.0,0.0,0.0,0.0,0.0,0.0,0.0,0.0,0.0,0.0,0.04,0.012,-0.01,0.0,0.0,0.0,0.0,0.0,0.0,0.0,0.0,0.0,-0.632,-0.746,13.3,0.0,0.0,0.0,0.0,0.0,0.0,0.0,0.0,0.0
1576083353583322279,1078,0,,0.0,0.0,0.0,0.0,0.0,0.0,0.0,0.0,0.0,0.0,0.0,0.0,0.0,0.015,-0.017,-0.01,0.0,0.0,0.0,0.0,0.0,0.0,0.0,0.0,0.0,0.481,0.195,6.86,0.0,0.0,0.0,0.0,0.0,0.0,0.0,0.0,0.0
1576083353642233220,1079,0,,0.0,0.0,0.0,0.0,0.0,0.0,0.0,0.0,0.0,0.0,0.0,0.0,0.0,-0.023,0.013,-0.04,0.0,0.0,0.0,0.0,0.0,0.0,0.0,0.0,0.0,0.116,-1.126,14.19,0.0,0.0,0.0,0.0,0.0,0.0,0.0,0.0,0.0
1576083353707578426,1080,0,,0.0,0.0,0.0,0.0,0.0,0.0,0.0,0.0,0.0,0.0,0.0,0.0,0.0,-0.012,-0.002,-0.01,0.0,0.0,0.0,0.0,0.0,0.0,0.0,0.0,0.0,-0.389,-0.444,12.55,0.0,0.0,0.0,0.0,0.0,0.0,0.0,0.0,0.0
1576083353783861579,1081,0,,0.0,0.0,0.0,0.0,0.0,0.0,0.0,0.0,0.0,0.0,0.0,0.0,0.0,-0.03,-0.015,-0.0,0.0,0.0,0.0,0.0,0.0,0.0,0.0,0.0,0.0,-0.093,-0.276,9.76,0.0,0.0,0.0,0.0,0.0,0.0,0.0,0.0,0.0
1576083353910276716,1082,0,,0.0,0.0,0.0,0.0,0.0,0.0,0.0,0.0,0.0,0.0,0.0,0.0,0.0,0.021,0.003,0.06,0.0,0.0,0.0,0.0,0.0,0.0,0.0,0.0,0.0,-0.377,-0.159,12.61,0.0,0.0,0.0,0.0,0.0,0.0,0.0,0.0,0.0
1576083354033436981,1083,0,,0.0,0.0,0.0,0.0,0.0,0.0,0.0,0.0,0.0,0.0,0.0,0.0,0.0,-0.002,0.0,0.07,0.0,0.0,0.0,0.0,0.0,0.0,0.0,0.0,0.0,0.286,-0.154,11.56,0.0,0.0,0.0,0.0,0.0,0.0,0.0,0.0,0.0
1576083354100862253,1084,0,,0.0,0.0,0.0,0.0,0.0,0.0,0.0,0.0,0.0,0.0,0.0,0.0,0.0,0.015,0.004,0.04,0.0,0.0,0.0,0.0,0.0,0.0,0.0,0.0,0.0,0.49,-0.735,7.94,0.0,0.0,0.0,0.0,0.0,0.0,0.0,0.0,0.0
1576083354189247292,1085,0,,0.0,0.0,0.0,0.0,0.0,0.0,0.0,0.0,0.0,0.0,0.0,0.0,0.0,-0.041,0.001,0.0,0.0,0.0,0.0,0.0,0.0,0.0,0.0,0.0,0.0,0.106,-0.094,8.41,0.0,0.0,0.0,0.0,0.0,0.0,0.0,0.0,0.0
1576083354235785400,1086,0,,0.0,0.0,0.0,0.0,0.0,0.0,0.0,0.0,0.0,0.0,0.0,0.0,0.0,-0.012,0.01,0.02,0.0,0.0,0.0,0.0,0.0,0.0,0.0,0.0,0.0,0.317,-1.53,13.36,0.0,0.0,0.0,0.0,0.0,0.0,0.0,0.0,0.0
1576083354302372770,1087,0,,0.0,0.0,0.0,0.0,0.0,0.0,0.0,0.0,0.0,0.0,0.0,0.0,0.0,-0.024,0.166,-0.02,0.0,0.0,0.0,0.0,0.0,0.0,0.0,0.0,0.0,0.217,-0.142,13.61,0.0,0.0,0.0,0.0,0.0,0.0,0.0,0.0,0.0
1576083354380895532,1088,0,,0.0,0.0,0.0,0.0,0.0,0.0,0.0,0.0,0.0,0.0,0.0,0.0,0.0,0.086,-0.157,0.04,0.0,0.0,0.0,0.0,0.0,0.0,0.0,0.0,0.0,0.348,0.524,10.65,0.0,0.0,0.0,0.0,0.0,0.0,0.0,0.0,0.0
1576083354436809126,1089,0,,0.0,0.0,0.0,0.0,0.0,0.0,0.0,0.0,0.0,0.0,0.0,0.0,0.0,-0.013,0.018,0.07,0.0,0.0,0.0,0.0,0.0,0.0,0.0,0.0,0.0,0.442,-1.181,7.76,0.0,0.0,0.0,0.0,0.0,0.0,0.0,0.0,0.0
1576083354504898813,1090,0,,0.0,0.0,0.0,0.0,0.0,0.0,0.0,0.0,0.0,0.0,0.0,0.0,0.0,0.034,-0.018,0.01,0.0,0.0,0.0,0.0,0.0,0.0,0.0,0.0,0.0,0.843,0.567,15.17,0.0,0.0,0.0,0.0,0.0,0.0,0.0,0.0,0.0
1576083354582140792,1091,0,,0.0,0.0,0.0,0.0,0.0,0.0,0.0,0.0,0.0,0.0,0.0,0.0,0.0,-0.086,-0.047,-0.05,0.0,0.0,0.0,0.0,0.0,0.0,0.0,0.0,0.0,-0.199,-0.977,9.93,0.0,0.0,0.0,0.0,0.0,0.0,0.0,0.0,0.0
1576083354644295132,1092,0,,0.0,0.0,0.0,0.0,0.0,0.0,0.0,0.0,0.0,0.0,0.0,0.0,0.0,0.07,0.031,0.0,0.0,0.0,0.0,0.0,0.0,0.0,0.0,0.0,0.0,-0.102,0.474,10.54,0.0,0.0,0.0,0.0,0.0,0.0,0.0,0.0,0.0
1576083354704799453,1093,0,,0.0,0.0,0.0,0.0,0.0,0.0,0.0,0.0,0.0,0.0,0.0,0.0,0.0,-0.012,0.015,0.04,0.0,0.0,0.0,0.0,0.0,0.0,0.0,0.0,0.0,-0.334,-0.668,8.75,0.0,0.0,0.0,0.0,0.0,0.0,0.0,0.0,0.0
1576083354784978732,1094,0,,0.0,0.0,0.0,0.0,0.0,0.0,0.0,0.0,0.0,0.0,0.0,0.0,0.0,-0.018,-0.038,0.1,0.0,0.0,0.0,0.0,0.0,0.0,0.0,0.0,0.0,-0.006,0.14,6.23,0.0,0.0,0.0,0.0,0.0,0.0,0.0,0.0,0.0
1576083354908130658,1095,0,,0.0,0.0,0.0,0.0,0.0,0.0,0.0,0.0,0.0,0.0,0.0,0.0,0.0,-0.022,-0.023,0.04,0.0,0.0,0.0,0.0,0.0,0.0,0.0,0.0,0.0,0.064,0.461,11.62,0.0,0.0,0.0,0.0,0.0,0.0,0.0,0.0,0.0
1576083354983709591,1096,0,,0.0,0.0,0.0,0.0,0.0,0.0,0.0,0.0,0.0,0.0,0.0,0.0,0.0,-0.047,-0.017,0.01,0.0,0.0,0.0,0.0,0.0,0.0,0.0,0.0,0.0,-0.422,-0.254,12.01,0.0,0.0,0.0,0.0,0.0,0.0,0.0,0.0,0.0
1576083355044622245,1097,0,,0.0,0.0,0.0,0.0,0.0,0.0,0.0,0.0,0.0,0.0,0.0,0.0,0.0,-0.02,-0.006,-0.01,0.0,0.0,0.0,0.0,0.0,0.0,0.0,0.0,0.0,0.451,-0.303,8.57,0.0,0.0,0.0,0.0,0.0,0.0,0.0,0.0,0.0
1576083355110283624,1098,0,,0.0,0.0,0.0,0.0,0.0,0.0,0.0,0.0,0.0,0.0,0.0,0.0,0.0,0.015,-0.013,-0.05,0.0,0.0,0.0,0.0,0.0,0.0,0.0,0.0,0.0,0.048,-0.61,8.89,0.0,0.0,0.0,0.0,0.0,0.0,0.0,0.0,0.0
1576083355232541813,1099,0,,0.0,0.0,0.0,0.0,0.0,0.0,0.0,0.0,0.0,0.0,0.0,0.0,0.0,0.023,-0.002,-0.1,0.0,0.0,0.0,0.0,0.0,0.0,0.0,0.0,0.0,0.234,-1.151,8.08,0.0,0.0,0.0,0.0,0.0,0.0,0.0,0.0,0.0
1576083355303432253,1100,0,,0.0,0.0,0.0,0.0,0.0,0.0,0.0,0.0,0.0,0.0,0.0,0.0,0.0,0.036,-0.006,-0.11,0.0,0.0,0.0,0.0,0.0,0.0,0.0,0.0,0.0,0.581,0.473,9.8,0.0,0.0,0.0,0.0,0.0,0.0,0.0,0.0,0.0
1576083355380311639,1101,0,,0.0,0.0,0.0,0.0,0.0,0.0,0.0,0.0,0.0,0.0,0.0,0.0,0.0,0.054,0.022,-0.11,0.0,0.0,0.0,0.0,0.0,0.0,0.0,0.0,0.0,0.163,-1.451,9.62,0.0,0.0,0.0,0.0,0.0,0.0,0.0,0.0,0.0
1576083355437172956,1102,0,,0.0,0.0,0.0,0.0,0.0,0.0,0.0,0.0,0.0,0.0,0.0,0.0,0.0,0.029,0.023,-0.08,0.0,0.0,0.0,0.0,0.0,0.0,0.0,0.0,0.0,-0.492,0.481,4.97,0.0,0.0,0.0,0.0,0.0,0.0,0.0,0.0,0.0
1576083355504475410,1103,0,,0.0,0.0,0.0,0.0,0.0,0.0,0.0,0.0,0.0,0.0,0.0,0.0,0.0,-0.054,-0.065,0.04,0.0,0.0,0.0,0.0,0.0,0.0,0.0,0.0,0.0,-1.618,-9.285,15.57,0.0,0.0,0.0,0.0,0.0,0.0,0.0,0.0,0.0
1576083355583338022,1104,0,,0.0,0.0,0.0,0.0,0.0,0.0,0.0,0.0,0.0,0.0,0.0,0.0,0.0,-0.131,0.022,-0.25,0.0,0.0,0.0,0.0,0.0,0.0,0.0,0.0,0.0,0.266,0.432,9.17,0.0,0.0,0.0,0.0,0.0,0.0,0.0,0.0,0.0
1576083355636491588,1105,0,,0.0,0.0,0.0,0.0,0.0,0.0,0.0,0.0,0.0,0.0,0.0,0.0,0.0,0.071,0.004,-0.01,0.0,0.0,0.0,0.0,0.0,0.0,0.0,0.0,0.0,-0.672,0.216,8.84,0.0,0.0,0.0,0.0,0.0,0.0,0.0,0.0,0.0
1576083355703393556,1106,0,,0.0,0.0,0.0,0.0,0.0,0.0,0.0,0.0,0.0,0.0,0.0,0.0,0.0,-0.023,0.032,0.2,0.0,0.0,0.0,0.0,0.0,0.0,0.0,0.0,0.0,-0.523,-0.395,9.13,0.0,0.0,0.0,0.0,0.0,0.0,0.0,0.0,0.0
1576083355780966236,1107,0,,0.0,0.0,0.0,0.0,0.0,0.0,0.0,0.0,0.0,0.0,0.0,0.0,0.0,0.15,-0.003,-0.09,0.0,0.0,0.0,0.0,0.0,0.0,0.0,0.0,0.0,0.596,1.216,6.67,0.0,0.0,0.0,0.0,0.0,0.0,0.0,0.0,0.0
1576083355842519348,1108,0,,0.0,0.0,0.0,0.0,0.0,0.0,0.0,0.0,0.0,0.0,0.0,0.0,0.0,-0.075,0.009,0.21,0.0,0.0,0.0,0.0,0.0,0.0,0.0,0.0,0.0,-1.05,-1.168,7.46,0.0,0.0,0.0,0.0,0.0,0.0,0.0,0.0,0.0
1576083355904320259,1109,0,,0.0,0.0,0.0,0.0,0.0,0.0,0.0,0.0,0.0,0.0,0.0,0.0,0.0,-0.027,-0.004,0.02,0.0,0.0,0.0,0.0,0.0,0.0,0.0,0.0,0.0,1.009,0.84,9.8,0.0,0.0,0.0,0.0,0.0,0.0,0.0,0.0,0.0
1576083355982473574,1110,0,,0.0,0.0,0.0,0.0,0.0,0.0,0.0,0.0,0.0,0.0,0.0,0.0,0.0,-0.024,0.029,-0.02,0.0,0.0,0.0,0.0,0.0,0.0,0.0,0.0,0.0,-0.098,-0.842,9.98,0.0,0.0,0.0,0.0,0.0,0.0,0.0,0.0,0.0
1576083356041829057,1111,0,,0.0,0.0,0.0,0.0,0.0,0.0,0.0,0.0,0.0,0.0,0.0,0.0,0.0,0.02,-0.012,-0.03,0.0,0.0,0.0,0.0,0.0,0.0,0.0,0.0,0.0,-0.653,-0.737,11.65,0.0,0.0,0.0,0.0,0.0,0.0,0.0,0.0,0.0
1576083356108075041,1112,0,,0.0,0.0,0.0,0.0,0.0,0.0,0.0,0.0,0.0,0.0,0.0,0.0,0.0,0.059,-0.024,-0.01,0.0,0.0,0.0,0.0,0.0,0.0,0.0,0.0,0.0,-0.236,-0.39,11.95,0.0,0.0,0.0,0.0,0.0,0.0,0.0,0.0,0.0
1576083356184583038,1113,0,,0.0,0.0,0.0,0.0,0.0,0.0,0.0,0.0,0.0,0.0,0.0,0.0,0.0,0.021,0.017,-0.02,0.0,0.0,0.0,0.0,0.0,0.0,0.0,0.0,0.0,-0.174,-0.861,11.63,0.0,0.0,0.0,0.0,0.0,0.0,0.0,0.0,0.0
1576083356242469079,1114,0,,0.0,0.0,0.0,0.0,0.0,0.0,0.0,0.0,0.0,0.0,0.0,0.0,0.0,0.059,-0.01,0.02,0.0,0.0,0.0,0.0,0.0,0.0,0.0,0.0,0.0,-0.494,-0.098,10.03,0.0,0.0,0.0,0.0,0.0,0.0,0.0,0.0,0.0
1576083356307751059,1115,0,,0.0,0.0,0.0,0.0,0.0,0.0,0.0,0.0,0.0,0.0,0.0,0.0,0.0,-0.019,-0.015,0.03,0.0,0.0,0.0,0.0,0.0,0.0,0.0,0.0,0.0,-0.587,-0.486,7.89,0.0,0.0,0.0,0.0,0.0,0.0,0.0,0.0,0.0
1576083356433568407,1116,0,,0.0,0.0,0.0,0.0,0.0,0.0,0.0,0.0,0.0,0.0,0.0,0.0,0.0,0.017,0.003,0.09,0.0,0.0,0.0,0.0,0.0,0.0,0.0,0.0,0.0,0.173,-0.185,7.65,0.0,0.0,0.0,0.0,0.0,0.0,0.0,0.0,0.0
1576083356501191430,1117,0,,0.0,0.0,0.0,0.0,0.0,0.0,0.0,0.0,0.0,0.0,0.0,0.0,0.0,-0.029,0.01,0.15,0.0,0.0,0.0,0.0,0.0,0.0,0.0,0.0,0.0,-0.478,-0.887,10.75,0.0,0.0,0.0,0.0,0.0,0.0,0.0,0.0,0.0
1576083356581262998,1118,0,,0.0,0.0,0.0,0.0,0.0,0.0,0.0,0.0,0.0,0.0,0.0,0.0,0.0,0.025,0.009,0.1,0.0,0.0,0.0,0.0,0.0,0.0,0.0,0.0,0.0,0.168,0.177,7.82,0.0,0.0,0.0,0.0,0.0,0.0,0.0,0.0,0.0
1576083356634074027,1119,0,,0.0,0.0,0.0,0.0,0.0,0.0,0.0,0.0,0.0,0.0,0.0,0.0,0.0,0.015,-0.008,0.09,0.0,0.0,0.0,0.0,0.0,0.0,0.0,0.0,0.0,0.661,-0.361,9.13,0.0,0.0,0.0,0.0,0.0,0.0,0.0,0.0,0.0
1576083356700462952,1120,0,,0.0,0.0,0.0,0.0,0.0,0.0,0.0,0.0,0.0,0.0,0.0,0.0,0.0,-0.062,0.03,0.06,0.0,0.0,0.0,0.0,0.0,0.0,0.0,0.0,0.0,0.042,-0.129,1.66,0.0,0.0,0.0,0.0,0.0,0.0,0.0,0.0,0.0
1576083356781237110,1121,0,,0.0,0.0,0.0,0.0,0.0,0.0,0.0,0.0,0.0,0.0,0.0,0.0,0.0,0.019,-0.052,-0.14,0.0,0.0,0.0,0.0,0.0,0.0,0.0,0.0,0.0,0.575,1.592,9.48,0.0,0.0,0.0,0.0,0.0,0.0,0.0,0.0,0.0
1576083356837383873,1122,0,,0.0,0.0,0.0,0.0,0.0,0.0,0.0,0.0,0.0,0.0,0.0,0.0,0.0,0.013,0.013,0.11,0.0,0.0,0.0,0.0,0.0,0.0,0.0,0.0,0.0,0.43,-0.609,6.46,0.0,0.0,0.0,0.0,0.0,0.0,0.0,0.0,0.0
1576083356903902683,1123,0,,0.0,0.0,0.0,0.0,0.0,0.0,0.0,0.0,0.0,0.0,0.0,0.0,0.0,-0.085,-0.016,0.08,0.0,0.0,0.0,0.0,0.0,0.0,0.0,0.0,0.0,0.28,0.111,4.98,0.0,0.0,0.0,0.0,0.0,0.0,0.0,0.0,0.0
1576083356978808037,1124,0,,0.0,0.0,0.0,0.0,0.0,0.0,0.0,0.0,0.0,0.0,0.0,0.0,0.0,-0.053,0.025,0.04,0.0,0.0,0.0,0.0,0.0,0.0,0.0,0.0,0.0,-0.364,-2.094,12.18,0.0,0.0,0.0,0.0,0.0,0.0,0.0,0.0,0.0
1576083357040176593,1125,0,,0.0,0.0,0.0,0.0,0.0,0.0,0.0,0.0,0.0,0.0,0.0,0.0,0.0,-0.065,0.018,-0.03,0.0,0.0,0.0,0.0,0.0,0.0,0.0,0.0,0.0,0.194,-0.851,13.33,0.0,0.0,0.0,0.0,0.0,0.0,0.0,0.0,0.0
1576083357107729312,1126,0,,0.0,0.0,0.0,0.0,0.0,0.0,0.0,0.0,0.0,0.0,0.0,0.0,0.0,0.108,-0.052,0.02,0.0,0.0,0.0,0.0,0.0,0.0,0.0,0.0,0.0,0.303,-0.006,5.12,0.0,0.0,0.0,0.0,0.0,0.0,0.0,0.0,0.0
1576083357181506788,1127,0,,0.0,0.0,0.0,0.0,0.0,0.0,0.0,0.0,0.0,0.0,0.0,0.0,0.0,0.045,0.025,0.05,0.0,0.0,0.0,0.0,0.0,0.0,0.0,0.0,0.0,-0.309,-0.964,9.45,0.0,0.0,0.0,0.0,0.0,0.0,0.0,0.0,0.0
1576083357237640942,1128,0,,0.0,0.0,0.0,0.0,0.0,0.0,0.0,0.0,0.0,0.0,0.0,0.0,0.0,-0.01,-0.015,0.06,0.0,0.0,0.0,0.0,0.0,0.0,0.0,0.0,0.0,-0.028,0.429,9.06,0.0,0.0,0.0,0.0,0.0,0.0,0.0,0.0,0.0
1576083357308710053,1129,0,,0.0,0.0,0.0,0.0,0.0,0.0,0.0,0.0,0.0,0.0,0.0,0.0,0.0,-0.003,-0.002,0.07,0.0,0.0,0.0,0.0,0.0,0.0,0.0,0.0,0.0,0.11,-1.384,7.93,0.0,0.0,0.0,0.0,0.0,0.0,0.0,0.0,0.0
1576083357379967664,1130,0,,0.0,0.0,0.0,0.0,0.0,0.0,0.0,0.0,0.0,0.0,0.0,0.0,0.0,0.041,-0.057,0.1,0.0,0.0,0.0,0.0,0.0,0.0,0.0,0.0,0.0,-0.771,-0.699,6.86,0.0,0.0,0.0,0.0,0.0,0.0,0.0,0.0,0.0
1576083357439498762,1131,0,,0.0,0.0,0.0,0.0,0.0,0.0,0.0,0.0,0.0,0.0,0.0,0.0,0.0,-0.001,0.021,0.1,0.0,0.0,0.0,0.0,0.0,0.0,0.0,0.0,0.0,-0.485,-0.887,12.38,0.0,0.0,0.0,0.0,0.0,0.0,0.0,0.0,0.0
1576083357575790754,1132,0,,0.0,0.0,0.0,0.0,0.0,0.0,0.0,0.0,0.0,0.0,0.0,0.0,0.0,-0.003,0.031,0.08,0.0,0.0,0.0,0.0,0.0,0.0,0.0,0.0,0.0,0.63,0.188,11.17,0.0,0.0,0.0,0.0,0.0,0.0,0.0,0.0,0.0
1576083357699941007,1133,0,,0.0,0.0,0.0,0.0,0.0,0.0,0.0,0.0,0.0,0.0,0.0,0.0,0.0,-0.04,0.004,0.05,0.0,0.0,0.0,0.0,0.0,0.0,0.0,0.0,0.0,-0.015,-0.426,12.57,0.0,0.0,0.0,0.0,0.0,0.0,0.0,0.0,0.0
1576083357780479641,1134,0,,0.0,0.0,0.0,0.0,0.0,0.0,0.0,0.0,0.0,0.0,0.0,0.0,0.0,-0.026,0.02,0.06,0.0,0.0,0.0,0.0,0.0,0.0,0.0,0.0,0.0,-0.074,-0.745,10.75,0.0,0.0,0.0,0.0,0.0,0.0,0.0,0.0,0.0
1576083357832234621,1135,0,,0.0,0.0,0.0,0.0,0.0,0.0,0.0,0.0,0.0,0.0,0.0,0.0,0.0,-0.014,0.004,0.03,0.0,0.0,0.0,0.0,0.0,0.0,0.0,0.0,0.0,0.367,-0.686,8.81,0.0,0.0,0.0,0.0,0.0,0.0,0.0,0.0,0.0
1576083357903422704,1136,0,,0.0,0.0,0.0,0.0,0.0,0.0,0.0,0.0,0.0,0.0,0.0,0.0,0.0,-0.068,0.013,0.03,0.0,0.0,0.0,0.0,0.0,0.0,0.0,0.0,0.0,-0.827,-0.602,7.62,0.0,0.0,0.0,0.0,0.0,0.0,0.0,0.0,0.0
1576083357982969994,1137,0,,0.0,0.0,0.0,0.0,0.0,0.0,0.0,0.0,0.0,0.0,0.0,0.0,0.0,0.072,-0.036,0.07,0.0,0.0,0.0,0.0,0.0,0.0,0.0,0.0,0.0,-0.194,0.058,-0.58,0.0,0.0,0.0,0.0,0.0,0.0,0.0,0.0,0.0
1576083358033848034,1138,0,,0.0,0.0,0.0,0.0,0.0,0.0,0.0,0.0,0.0,0.0,0.0,0.0,0.0,0.043,0.38,0.06,0.0,0.0,0.0,0.0,0.0,0.0,0.0,0.0,0.0,0.102,1.347,12.56,0.0,0.0,0.0,0.0,0.0,0.0,0.0,0.0,0.0
1576083358166382494,1139,0,,0.0,0.0,0.0,0.0,0.0,0.0,0.0,0.0,0.0,0.0,0.0,0.0,0.0,-0.036,-0.351,0.16,0.0,0.0,0.0,0.0,0.0,0.0,0.0,0.0,0.0,0.523,0.323,5.5,0.0,0.0,0.0,0.0,0.0,0.0,0.0,0.0,0.0
1576083358176104620,1140,0,,0.0,0.0,0.0,0.0,0.0,0.0,0.0,0.0,0.0,0.0,0.0,0.0,0.0,-0.036,-0.024,0.04,0.0,0.0,0.0,0.0,0.0,0.0,0.0,0.0,0.0,0.147,-0.248,8.67,0.0,0.0,0.0,0.0,0.0,0.0,0.0,0.0,0.0
1576083358237405242,1141,0,,0.0,0.0,0.0,0.0,0.0,0.0,0.0,0.0,0.0,0.0,0.0,0.0,0.0,-0.03,0.124,-0.07,0.0,0.0,0.0,0.0,0.0,0.0,0.0,0.0,0.0,-0.476,-1.008,10.82,0.0,0.0,0.0,0.0,0.0,0.0,0.0,0.0,0.0
1576083358303507487,1142,0,,0.0,0.0,0.0,0.0,0.0,0.0,0.0,0.0,0.0,0.0,0.0,0.0,0.0,-0.045,-0.091,-0.08,0.0,0.0,0.0,0.0,0.0,0.0,0.0,0.0,0.0,-0.638,-0.4,10.5,0.0,0.0,0.0,0.0,0.0,0.0,0.0,0.0,0.0
1576083358379214182,1143,0,,0.0,0.0,0.0,0.0,0.0,0.0,0.0,0.0,0.0,0.0,0.0,0.0,0.0,0.044,0.016,-0.02,0.0,0.0,0.0,0.0,0.0,0.0,0.0,0.0,0.0,-0.462,0.042,7.59,0.0,0.0,0.0,0.0,0.0,0.0,0.0,0.0,0.0
1576083358437198320,1144,0,,0.0,0.0,0.0,0.0,0.0,0.0,0.0,0.0,0.0,0.0,0.0,0.0,0.0,0.017,0.007,0.02,0.0,0.0,0.0,0.0,0.0,0.0,0.0,0.0,0.0,0.202,-0.466,7.97,0.0,0.0,0.0,0.0,0.0,0.0,0.0,0.0,0.0
1576083358507138316,1145,0,,0.0,0.0,0.0,0.0,0.0,0.0,0.0,0.0,0.0,0.0,0.0,0.0,0.0,0.017,0.0,0.05,0.0,0.0,0.0,0.0,0.0,0.0,0.0,0.0,0.0,-0.625,-0.114,9.44,0.0,0.0,0.0,0.0,0.0,0.0,0.0,0.0,0.0
1576083358577244355,1146,0,,0.0,0.0,0.0,0.0,0.0,0.0,0.0,0.0,0.0,0.0,0.0,0.0,0.0,-0.005,-0.018,0.17,0.0,0.0,0.0,0.0,0.0,0.0,0.0,0.0,0.0,-0.148,-0.92,9.43,0.0,0.0,0.0,0.0,0.0,0.0,0.0,0.0,0.0
1576083358640969640,1147,0,,0.0,0.0,0.0,0.0,0.0,0.0,0.0,0.0,0.0,0.0,0.0,0.0,0.0,0.0,0.009,0.2,0.0,0.0,0.0,0.0,0.0,0.0,0.0,0.0,0.0,-0.242,-0.677,9.64,0.0,0.0,0.0,0.0,0.0,0.0,0.0,0.0,0.0
1576083358707163367,1148,0,,0.0,0.0,0.0,0.0,0.0,0.0,0.0,0.0,0.0,0.0,0.0,0.0,0.0,0.016,0.04,0.18,0.0,0.0,0.0,0.0,0.0,0.0,0.0,0.0,0.0,-0.418,-0.36,10.19,0.0,0.0,0.0,0.0,0.0,0.0,0.0,0.0,0.0
1576083358773052411,1149,0,,0.0,0.0,0.0,0.0,0.0,0.0,0.0,0.0,0.0,0.0,0.0,0.0,0.0,-0.045,-0.015,0.14,0.0,0.0,0.0,0.0,0.0,0.0,0.0,0.0,0.0,-0.703,-0.808,9.42,0.0,0.0,0.0,0.0,0.0,0.0,0.0,0.0,0.0
1576083358897929451,1150,0,,0.0,0.0,0.0,0.0,0.0,0.0,0.0,0.0,0.0,0.0,0.0,0.0,0.0,-0.0,0.014,0.11,0.0,0.0,0.0,0.0,0.0,0.0,0.0,0.0,0.0,-1.252,-0.706,10.89,0.0,0.0,0.0,0.0,0.0,0.0,0.0,0.0,0.0
1576083358972167381,1151,0,,0.0,0.0,0.0,0.0,0.0,0.0,0.0,0.0,0.0,0.0,0.0,0.0,0.0,0.004,-0.032,0.05,0.0,0.0,0.0,0.0,0.0,0.0,0.0,0.0,0.0,0.787,-0.273,10.17,0.0,0.0,0.0,0.0,0.0,0.0,0.0,0.0,0.0
1576083359031205934,1152,0,,0.0,0.0,0.0,0.0,0.0,0.0,0.0,0.0,0.0,0.0,0.0,0.0,0.0,0.067,0.008,0.06,0.0,0.0,0.0,0.0,0.0,0.0,0.0,0.0,0.0,-0.562,0.299,11.33,0.0,0.0,0.0,0.0,0.0,0.0,0.0,0.0,0.0
1576083359098787453,1153,0,,0.0,0.0,0.0,0.0,0.0,0.0,0.0,0.0,0.0,0.0,0.0,0.0,0.0,0.013,-0.007,0.01,0.0,0.0,0.0,0.0,0.0,0.0,0.0,0.0,0.0,-0.03,-0.09,8.65,0.0,0.0,0.0,0.0,0.0,0.0,0.0,0.0,0.0
1576083359171258330,1154,0,,0.0,0.0,0.0,0.0,0.0,0.0,0.0,0.0,0.0,0.0,0.0,0.0,0.0,0.022,0.003,-0.05,0.0,0.0,0.0,0.0,0.0,0.0,0.0,0.0,0.0,0.585,-0.236,8.5,0.0,0.0,0.0,0.0,0.0,0.0,0.0,0.0,0.0
1576083359233759592,1155,0,,0.0,0.0,0.0,0.0,0.0,0.0,0.0,0.0,0.0,0.0,0.0,0.0,0.0,0.034,0.02,-0.11,0.0,0.0,0.0,0.0,0.0,0.0,0.0,0.0,0.0,-0.579,-0.254,3.98,0.0,0.0,0.0,0.0,0.0,0.0,0.0,0.0,0.0
1576083359301010171,1156,0,,0.0,0.0,0.0,0.0,0.0,0.0,0.0,0.0,0.0,0.0,0.0,0.0,0.0,-0.019,-0.022,-0.11,0.0,0.0,0.0,0.0,0.0,0.0,0.0,0.0,0.0,0.306,-0.047,6.47,0.0,0.0,0.0,0.0,0.0,0.0,0.0,0.0,0.0
1576083359399108807,1157,0,,0.0,0.0,0.0,0.0,0.0,0.0,0.0,0.0,0.0,0.0,0.0,0.0,0.0,-0.074,-0.018,-0.04,0.0,0.0,0.0,0.0,0.0,0.0,0.0,0.0,0.0,-0.097,-0.387,5.1,0.0,0.0,0.0,0.0,0.0,0.0,0.0,0.0,0.0
1576083359439747498,1158,0,,0.0,0.0,0.0,0.0,0.0,0.0,0.0,0.0,0.0,0.0,0.0,0.0,0.0,-0.022,-0.024,-0.03,0.0,0.0,0.0,0.0,0.0,0.0,0.0,0.0,0.0,-0.347,-0.271,15.45,0.0,0.0,0.0,0.0,0.0,0.0,0.0,0.0,0.0
1576083359503326001,1159,0,,0.0,0.0,0.0,0.0,0.0,0.0,0.0,0.0,0.0,0.0,0.0,0.0,0.0,-0.007,0.008,-0.12,0.0,0.0,0.0,0.0,0.0,0.0,0.0,0.0,0.0,0.103,-0.137,9.12,0.0,0.0,0.0,0.0,0.0,0.0,0.0,0.0,0.0
1576083359573724613,1160,0,,0.0,0.0,0.0,0.0,0.0,0.0,0.0,0.0,0.0,0.0,0.0,0.0,0.0,0.039,-0.004,-0.04,0.0,0.0,0.0,0.0,0.0,0.0,0.0,0.0,0.0,-0.299,-0.613,9.59,0.0,0.0,0.0,0.0,0.0,0.0,0.0,0.0,0.0
1576083359641178376,1161,0,,0.0,0.0,0.0,0.0,0.0,0.0,0.0,0.0,0.0,0.0,0.0,0.0,0.0,0.056,0.016,-0.12,0.0,0.0,0.0,0.0,0.0,0.0,0.0,0.0,0.0,-0.277,0.248,10.25,0.0,0.0,0.0,0.0,0.0,0.0,0.0,0.0,0.0
1576083359707022225,1162,0,,0.0,0.0,0.0,0.0,0.0,0.0,0.0,0.0,0.0,0.0,0.0,0.0,0.0,0.052,0.013,-0.2,0.0,0.0,0.0,0.0,0.0,0.0,0.0,0.0,0.0,-0.23,-0.1,9.76,0.0,0.0,0.0,0.0,0.0,0.0,0.0,0.0,0.0
1576083359774351618,1163,0,,0.0,0.0,0.0,0.0,0.0,0.0,0.0,0.0,0.0,0.0,0.0,0.0,0.0,0.001,0.019,-0.24,0.0,0.0,0.0,0.0,0.0,0.0,0.0,0.0,0.0,-0.296,-1.072,9.35,0.0,0.0,0.0,0.0,0.0,0.0,0.0,0.0,0.0
1576083359840721129,1164,0,,0.0,0.0,0.0,0.0,0.0,0.0,0.0,0.0,0.0,0.0,0.0,0.0,0.0,0.003,0.015,-0.13,0.0,0.0,0.0,0.0,0.0,0.0,0.0,0.0,0.0,-0.389,-0.581,9.69,0.0,0.0,0.0,0.0,0.0,0.0,0.0,0.0,0.0
1576083359907691471,1165,0,,0.0,0.0,0.0,0.0,0.0,0.0,0.0,0.0,0.0,0.0,0.0,0.0,0.0,-0.049,-0.003,-0.04,0.0,0.0,0.0,0.0,0.0,0.0,0.0,0.0,0.0,-0.719,-0.297,8.71,0.0,0.0,0.0,0.0,0.0,0.0,0.0,0.0,0.0
1576083360040995472,1166,0,,0.0,0.0,0.0,0.0,0.0,0.0,0.0,0.0,0.0,0.0,0.0,0.0,0.0,-0.07,0.003,0.12,0.0,0.0,0.0,0.0,0.0,0.0,0.0,0.0,0.0,-0.414,-0.101,10.37,0.0,0.0,0.0,0.0,0.0,0.0,0.0,0.0,0.0
1576083360179295286,1167,0,,0.0,0.0,0.0,0.0,0.0,0.0,0.0,0.0,0.0,0.0,0.0,0.0,0.0,-0.038,0.003,0.17,0.0,0.0,0.0,0.0,0.0,0.0,0.0,0.0,0.0,-0.03,-0.086,9.6,0.0,0.0,0.0,0.0,0.0,0.0,0.0,0.0,0.0
1576083360235800954,1168,0,,0.0,0.0,0.0,0.0,0.0,0.0,0.0,0.0,0.0,0.0,0.0,0.0,0.0,-0.029,0.001,0.17,0.0,0.0,0.0,0.0,0.0,0.0,0.0,0.0,0.0,-0.176,-0.985,7.9,0.0,0.0,0.0,0.0,0.0,0.0,0.0,0.0,0.0
1576083360301389361,1169,0,,0.0,0.0,0.0,0.0,0.0,0.0,0.0,0.0,0.0,0.0,0.0,0.0,0.0,-0.014,0.005,0.12,0.0,0.0,0.0,0.0,0.0,0.0,0.0,0.0,0.0,-0.187,-0.795,10.19,0.0,0.0,0.0,0.0,0.0,0.0,0.0,0.0,0.0
1576083360375215260,1170,0,,0.0,0.0,0.0,0.0,0.0,0.0,0.0,0.0,0.0,0.0,0.0,0.0,0.0,0.012,0.018,0.1,0.0,0.0,0.0,0.0,0.0,0.0,0.0,0.0,0.0,-0.952,-0.535,9.66,0.0,0.0,0.0,0.0,0.0,0.0,0.0,0.0,0.0
1576083360435687034,1171,0,,0.0,0.0,0.0,0.0,0.0,0.0,0.0,0.0,0.0,0.0,0.0,0.0,0.0,-0.034,-0.004,0.08,0.0,0.0,0.0,0.0,0.0,0.0,0.0,0.0,0.0,-1.51,-2.684,10.39,0.0,0.0,0.0,0.0,0.0,0.0,0.0,0.0,0.0
1576083360504294901,1172,0,,0.0,0.0,0.0,0.0,0.0,0.0,0.0,0.0,0.0,0.0,0.0,0.0,0.0,-0.018,0.211,-0.01,0.0,0.0,0.0,0.0,0.0,0.0,0.0,0.0,0.0,-1.811,0.509,4.05,0.0,0.0,0.0,0.0,0.0,0.0,0.0,0.0,0.0
1576083360573896824,1173,0,,0.0,0.0,0.0,0.0,0.0,0.0,0.0,0.0,0.0,0.0,0.0,0.0,0.0,0.117,-0.218,0.15,0.0,0.0,0.0,0.0,0.0,0.0,0.0,0.0,0.0,-0.553,-2.785,8.65,0.0,0.0,0.0,0.0,0.0,0.0,0.0,0.0,0.0
1576083360636865745,1174,0,,0.0,0.0,0.0,0.0,0.0,0.0,0.0,0.0,0.0,0.0,0.0,0.0,0.0,-0.022,-0.004,0.06,0.0,0.0,0.0,0.0,0.0,0.0,0.0,0.0,0.0,0.194,-0.789,6.32,0.0,0.0,0.0,0.0,0.0,0.0,0.0,0.0,0.0
1576083360706635192,1175,0,,0.0,0.0,0.0,0.0,0.0,0.0,0.0,0.0,0.0,0.0,0.0,0.0,0.0,0.026,-0.021,0.05,0.0,0.0,0.0,0.0,0.0,0.0,0.0,0.0,0.0,0.059,-2.982,6.1,0.0,0.0,0.0,0.0,0.0,0.0,0.0,0.0,0.0
1576083360772699193,1176,0,,0.0,0.0,0.0,0.0,0.0,0.0,0.0,0.0,0.0,0.0,0.0,0.0,0.0,0.008,0.02,0.02,0.0,0.0,0.0,0.0,0.0,0.0,0.0,0.0,0.0,-0.31,-1.971,11.81,0.0,0.0,0.0,0.0,0.0,0.0,0.0,0.0,0.0
1576083360838992156,1177,0,,0.0,0.0,0.0,0.0,0.0,0.0,0.0,0.0,0.0,0.0,0.0,0.0,0.0,0.024,-0.016,0.17,0.0,0.0,0.0,0.0,0.0,0.0,0.0,0.0,0.0,-0.635,-0.76,10.32,0.0,0.0,0.0,0.0,0.0,0.0,0.0,0.0,0.0
1576083360907371030,1178,0,,0.0,0.0,0.0,0.0,0.0,0.0,0.0,0.0,0.0,0.0,0.0,0.0,0.0,0.012,-0.011,0.28,0.0,0.0,0.0,0.0,0.0,0.0,0.0,0.0,0.0,-0.213,-0.713,10.2,0.0,0.0,0.0,0.0,0.0,0.0,0.0,0.0,0.0
1576083360974446544,1179,0,,0.0,0.0,0.0,0.0,0.0,0.0,0.0,0.0,0.0,0.0,0.0,0.0,0.0,-0.002,-0.002,0.55,0.0,0.0,0.0,0.0,0.0,0.0,0.0,0.0,0.0,-1.198,-0.657,9.97,0.0,0.0,0.0,0.0,0.0,0.0,0.0,0.0,0.0
1576083361048317928,1180,0,,0.0,0.0,0.0,0.0,0.0,0.0,0.0,0.0,0.0,0.0,0.0,0.0,0.0,-0.01,-0.02,0.63,0.0,0.0,0.0,0.0,0.0,0.0,0.0,0.0,0.0,-0.244,-1.522,10.35,0.0,0.0,0.0,0.0,0.0,0.0,0.0,0.0,0.0
1576083361106965308,1181,0,,0.0,0.0,0.0,0.0,0.0,0.0,0.0,0.0,0.0,0.0,0.0,0.0,0.0,-0.016,-0.005,0.67,0.0,0.0,0.0,0.0,0.0,0.0,0.0,0.0,0.0,-0.57,-0.991,8.57,0.0,0.0,0.0,0.0,0.0,0.0,0.0,0.0,0.0
1576083361171632038,1182,0,,0.0,0.0,0.0,0.0,0.0,0.0,0.0,0.0,0.0,0.0,0.0,0.0,0.0,-0.017,0.009,0.71,0.0,0.0,0.0,0.0,0.0,0.0,0.0,0.0,0.0,-1.378,-1.078,9.81,0.0,0.0,0.0,0.0,0.0,0.0,0.0,0.0,0.0
1576083361240267968,1183,0,,0.0,0.0,0.0,0.0,0.0,0.0,0.0,0.0,0.0,0.0,0.0,0.0,0.0,-0.067,0.022,0.77,0.0,0.0,0.0,0.0,0.0,0.0,0.0,0.0,0.0,-1.615,-0.906,9.75,0.0,0.0,0.0,0.0,0.0,0.0,0.0,0.0,0.0
1576083361308229524,1184,0,,0.0,0.0,0.0,0.0,0.0,0.0,0.0,0.0,0.0,0.0,0.0,0.0,0.0,-0.039,-0.008,0.82,0.0,0.0,0.0,0.0,0.0,0.0,0.0,0.0,0.0,-2.078,-0.78,10.13,0.0,0.0,0.0,0.0,0.0,0.0,0.0,0.0,0.0
1576083361431787876,1185,0,,0.0,0.0,0.0,0.0,0.0,0.0,0.0,0.0,0.0,0.0,0.0,0.0,0.0,-0.055,-0.014,0.84,0.0,0.0,0.0,0.0,0.0,0.0,0.0,0.0,0.0,-2.144,-1.418,9.72,0.0,0.0,0.0,0.0,0.0,0.0,0.0,0.0,0.0
1576083361499994821,1186,0,,0.0,0.0,0.0,0.0,0.0,0.0,0.0,0.0,0.0,0.0,0.0,0.0,0.0,-0.047,-0.034,0.9,0.0,0.0,0.0,0.0,0.0,0.0,0.0,0.0,0.0,-1.341,-0.999,9.15,0.0,0.0,0.0,0.0,0.0,0.0,0.0,0.0,0.0
1576083361572971470,1187,0,,0.0,0.0,0.0,0.0,0.0,0.0,0.0,0.0,0.0,0.0,0.0,0.0,0.0,-0.052,-0.043,0.98,0.0,0.0,0.0,0.0,0.0,0.0,0.0,0.0,0.0,-1.495,-1.172,9.76,0.0,0.0,0.0,0.0,0.0,0.0,0.0,0.0,0.0
1576083361633533503,1188,0,,0.0,0.0,0.0,0.0,0.0,0.0,0.0,0.0,0.0,0.0,0.0,0.0,0.0,-0.044,-0.027,1.01,0.0,0.0,0.0,0.0,0.0,0.0,0.0,0.0,0.0,-1.03,-0.908,9.9,0.0,0.0,0.0,0.0,0.0,0.0,0.0,0.0,0.0
1576083361700210892,1189,0,,0.0,0.0,0.0,0.0,0.0,0.0,0.0,0.0,0.0,0.0,0.0,0.0,0.0,-0.042,-0.035,1.02,0.0,0.0,0.0,0.0,0.0,0.0,0.0,0.0,0.0,-0.96,-1.324,10.02,0.0,0.0,0.0,0.0,0.0,0.0,0.0,0.0,0.0
1576083361771692259,1190,0,,0.0,0.0,0.0,0.0,0.0,0.0,0.0,0.0,0.0,0.0,0.0,0.0,0.0,-0.015,-0.011,1.03,0.0,0.0,0.0,0.0,0.0,0.0,0.0,0.0,0.0,-1.212,-0.418,9.52,0.0,0.0,0.0,0.0,0.0,0.0,0.0,0.0,0.0
1576083361836865866,1191,0,,0.0,0.0,0.0,0.0,0.0,0.0,0.0,0.0,0.0,0.0,0.0,0.0,0.0,0.009,-0.018,1.03,0.0,0.0,0.0,0.0,0.0,0.0,0.0,0.0,0.0,-1.348,-0.082,9.03,0.0,0.0,0.0,0.0,0.0,0.0,0.0,0.0,0.0
1576083361901958049,1192,0,,0.0,0.0,0.0,0.0,0.0,0.0,0.0,0.0,0.0,0.0,0.0,0.0,0.0,-0.004,-0.027,0.97,0.0,0.0,0.0,0.0,0.0,0.0,0.0,0.0,0.0,-1.033,-0.0,9.14,0.0,0.0,0.0,0.0,0.0,0.0,0.0,0.0,0.0
1576083361973495844,1193,0,,0.0,0.0,0.0,0.0,0.0,0.0,0.0,0.0,0.0,0.0,0.0,0.0,0.0,-0.013,0.001,0.98,0.0,0.0,0.0,0.0,0.0,0.0,0.0,0.0,0.0,-1.55,0.208,9.33,0.0,0.0,0.0,0.0,0.0,0.0,0.0,0.0,0.0
1576083362039656286,1194,0,,0.0,0.0,0.0,0.0,0.0,0.0,0.0,0.0,0.0,0.0,0.0,0.0,0.0,-0.038,0.011,0.98,0.0,0.0,0.0,0.0,0.0,0.0,0.0,0.0,0.0,-1.483,0.76,11.12,0.0,0.0,0.0,0.0,0.0,0.0,0.0,0.0,0.0
1576083362103935765,1195,0,,0.0,0.0,0.0,0.0,0.0,0.0,0.0,0.0,0.0,0.0,0.0,0.0,0.0,-0.03,-0.011,1.01,0.0,0.0,0.0,0.0,0.0,0.0,0.0,0.0,0.0,-1.522,-0.633,8.45,0.0,0.0,0.0,0.0,0.0,0.0,0.0,0.0,0.0
1576083362172295364,1196,0,,0.0,0.0,0.0,0.0,0.0,0.0,0.0,0.0,0.0,0.0,0.0,0.0,0.0,-0.045,-0.046,1.03,0.0,0.0,0.0,0.0,0.0,0.0,0.0,0.0,0.0,-0.594,0.512,8.1,0.0,0.0,0.0,0.0,0.0,0.0,0.0,0.0,0.0
1576083362238650316,1197,0,,0.0,0.0,0.0,0.0,0.0,0.0,0.0,0.0,0.0,0.0,0.0,0.0,0.0,0.046,-0.021,0.97,0.0,0.0,0.0,0.0,0.0,0.0,0.0,0.0,0.0,-0.086,0.019,7.97,0.0,0.0,0.0,0.0,0.0,0.0,0.0,0.0,0.0
1576083362371584562,1198,0,,0.0,0.0,0.0,0.0,0.0,0.0,0.0,0.0,0.0,0.0,0.0,0.0,0.0,-0.002,-0.005,0.97,0.0,0.0,0.0,0.0,0.0,0.0,0.0,0.0,0.0,-0.504,1.751,9.34,0.0,0.0,0.0,0.0,0.0,0.0,0.0,0.0,0.0
1576083362440504973,1199,0,,0.0,0.0,0.0,0.0,0.0,0.0,0.0,0.0,0.0,0.0,0.0,0.0,0.0,-0.07,-0.003,0.48,0.0,0.0,0.0,0.0,0.0,0.0,0.0,0.0,0.0,0.425,1.368,11.18,0.0,0.0,0.0,0.0,0.0,0.0,0.0,0.0,0.0
1576083362572701670,1200,0,,0.0,0.0,0.0,0.0,0.0,0.0,0.0,0.0,0.0,0.0,0.0,0.0,0.0,0.02,0.061,0.27,0.0,0.0,0.0,0.0,0.0,0.0,0.0,0.0,0.0,-0.984,3.13,10.28,0.0,0.0,0.0,0.0,0.0,0.0,0.0,0.0,0.0
1576083362699491457,1201,0,,0.0,0.0,0.0,0.0,0.0,0.0,0.0,0.0,0.0,0.0,0.0,0.0,0.0,-0.034,-0.101,-0.2,0.0,0.0,0.0,0.0,0.0,0.0,0.0,0.0,0.0,-2.12,1.375,10.88,0.0,0.0,0.0,0.0,0.0,0.0,0.0,0.0,0.0
1576083362772967281,1202,0,,0.0,0.0,0.0,0.0,0.0,0.0,0.0,0.0,0.0,0.0,0.0,0.0,0.0,0.094,0.037,0.0,0.0,0.0,0.0,0.0,0.0,0.0,0.0,0.0,0.0,-0.47,0.279,9.64,0.0,0.0,0.0,0.0,0.0,0.0,0.0,0.0,0.0
1576083362836482242,1203,0,,0.0,0.0,0.0,0.0,0.0,0.0,0.0,0.0,0.0,0.0,0.0,0.0,0.0,-0.044,-0.022,-0.14,0.0,0.0,0.0,0.0,0.0,0.0,0.0,0.0,0.0,-0.98,1.412,11.19,0.0,0.0,0.0,0.0,0.0,0.0,0.0,0.0,0.0
1576083362901114067,1204,0,,0.0,0.0,0.0,0.0,0.0,0.0,0.0,0.0,0.0,0.0,0.0,0.0,0.0,0.027,-0.013,-0.04,0.0,0.0,0.0,0.0,0.0,0.0,0.0,0.0,0.0,-0.669,0.31,8.48,0.0,0.0,0.0,0.0,0.0,0.0,0.0,0.0,0.0
1576083362970366975,1205,0,,0.0,0.0,0.0,0.0,0.0,0.0,0.0,0.0,0.0,0.0,0.0,0.0,0.0,-0.025,-0.003,-0.05,0.0,0.0,0.0,0.0,0.0,0.0,0.0,0.0,0.0,-1.361,-0.067,9.26,0.0,0.0,0.0,0.0,0.0,0.0,0.0,0.0,0.0
1576083363034239769,1206,0,,0.0,0.0,0.0,0.0,0.0,0.0,0.0,0.0,0.0,0.0,0.0,0.0,0.0,0.017,0.002,-0.02,0.0,0.0,0.0,0.0,0.0,0.0,0.0,0.0,0.0,-1.872,-0.032,10.97,0.0,0.0,0.0,0.0,0.0,0.0,0.0,0.0,0.0
1576083363102774315,1207,0,,0.0,0.0,0.0,0.0,0.0,0.0,0.0,0.0,0.0,0.0,0.0,0.0,0.0,0.004,-0.034,-0.0,0.0,0.0,0.0,0.0,0.0,0.0,0.0,0.0,0.0,-0.411,0.148,9.36,0.0,0.0,0.0,0.0,0.0,0.0,0.0,0.0,0.0
1576083363171986504,1208,0,,0.0,0.0,0.0,0.0,0.0,0.0,0.0,0.0,0.0,0.0,0.0,0.0,0.0,-0.008,-0.001,0.04,0.0,0.0,0.0,0.0,0.0,0.0,0.0,0.0,0.0,-0.874,0.636,10.07,0.0,0.0,0.0,0.0,0.0,0.0,0.0,0.0,0.0
1576083363236023665,1209,0,,0.0,0.0,0.0,0.0,0.0,0.0,0.0,0.0,0.0,0.0,0.0,0.0,0.0,-0.024,-0.038,0.01,0.0,0.0,0.0,0.0,0.0,0.0,0.0,0.0,0.0,-0.738,-0.473,7.84,0.0,0.0,0.0,0.0,0.0,0.0,0.0,0.0,0.0
1576083363304260106,1210,0,,0.0,0.0,0.0,0.0,0.0,0.0,0.0,0.0,0.0,0.0,0.0,0.0,0.0,-0.039,-0.062,-0.01,0.0,0.0,0.0,0.0,0.0,0.0,0.0,0.0,0.0,-0.146,-0.038,7.07,0.0,0.0,0.0,0.0,0.0,0.0,0.0,0.0,0.0
1576083363373524544,1211,0,,0.0,0.0,0.0,0.0,0.0,0.0,0.0,0.0,0.0,0.0,0.0,0.0,0.0,0.023,-0.031,0.04,0.0,0.0,0.0,0.0,0.0,0.0,0.0,0.0,0.0,-0.211,-0.082,8.22,0.0,0.0,0.0,0.0,0.0,0.0,0.0,0.0,0.0
1576083363440217296,1212,0,,0.0,0.0,0.0,0.0,0.0,0.0,0.0,0.0,0.0,0.0,0.0,0.0,0.0,0.04,-0.026,0.04,0.0,0.0,0.0,0.0,0.0,0.0,0.0,0.0,0.0,-0.114,0.135,8.4,0.0,0.0,0.0,0.0,0.0,0.0,0.0,0.0,0.0
1576083363509705036,1213,0,,0.0,0.0,0.0,0.0,0.0,0.0,0.0,0.0,0.0,0.0,0.0,0.0,0.0,0.037,-0.006,0.02,0.0,0.0,0.0,0.0,0.0,0.0,0.0,0.0,0.0,-0.373,0.176,10.18,0.0,0.0,0.0,0.0,0.0,0.0,0.0,0.0,0.0
1576083363571701571,1214,0,,0.0,0.0,0.0,0.0,0.0,0.0,0.0,0.0,0.0,0.0,0.0,0.0,0.0,0.016,-0.014,0.04,0.0,0.0,0.0,0.0,0.0,0.0,0.0,0.0,0.0,-0.517,0.334,7.89,0.0,0.0,0.0,0.0,0.0,0.0,0.0,0.0,0.0
1576083363707421667,1215,0,,0.0,0.0,0.0,0.0,0.0,0.0,0.0,0.0,0.0,0.0,0.0,0.0,0.0,-0.024,-0.006,0.07,0.0,0.0,0.0,0.0,0.0,0.0,0.0,0.0,0.0,-0.412,-0.645,7.9,0.0,0.0,0.0,0.0,0.0,0.0,0.0,0.0,0.0
1576083363778218503,1216,0,,0.0,0.0,0.0,0.0,0.0,0.0,0.0,0.0,0.0,0.0,0.0,0.0,0.0,-0.069,-0.068,-0.2,0.0,0.0,0.0,0.0,0.0,0.0,0.0,0.0,0.0,0.087,-0.083,-0.53,0.0,0.0,0.0,0.0,0.0,0.0,0.0,0.0,0.0
1576083363900011504,1217,0,,0.0,0.0,0.0,0.0,0.0,0.0,0.0,0.0,0.0,0.0,0.0,0.0,0.0,0.01,0.03,0.18,0.0,0.0,0.0,0.0,0.0,0.0,0.0,0.0,0.0,-2.348,-0.125,11.04,0.0,0.0,0.0,0.0,0.0,0.0,0.0,0.0,0.0
1576083363969955501,1218,0,,0.0,0.0,0.0,0.0,0.0,0.0,0.0,0.0,0.0,0.0,0.0,0.0,0.0,-0.121,-0.06,0.23,0.0,0.0,0.0,0.0,0.0,0.0,0.0,0.0,0.0,-0.742,-0.707,10.36,0.0,0.0,0.0,0.0,0.0,0.0,0.0,0.0,0.0
1576083364032983794,1219,0,,0.0,0.0,0.0,0.0,0.0,0.0,0.0,0.0,0.0,0.0,0.0,0.0,0.0,-0.145,-0.065,0.27,0.0,0.0,0.0,0.0,0.0,0.0,0.0,0.0,0.0,-0.886,-1.861,8.91,0.0,0.0,0.0,0.0,0.0,0.0,0.0,0.0,0.0
1576083364104431400,1220,0,,0.0,0.0,0.0,0.0,0.0,0.0,0.0,0.0,0.0,0.0,0.0,0.0,0.0,0.036,-0.001,0.4,0.0,0.0,0.0,0.0,0.0,0.0,0.0,0.0,0.0,-1.775,0.056,10.0,0.0,0.0,0.0,0.0,0.0,0.0,0.0,0.0,0.0
1576083364167449462,1221,0,,0.0,0.0,0.0,0.0,0.0,0.0,0.0,0.0,0.0,0.0,0.0,0.0,0.0,0.028,-0.006,0.47,0.0,0.0,0.0,0.0,0.0,0.0,0.0,0.0,0.0,-0.776,-0.483,10.74,0.0,0.0,0.0,0.0,0.0,0.0,0.0,0.0,0.0
1576083364233660375,1222,0,,0.0,0.0,0.0,0.0,0.0,0.0,0.0,0.0,0.0,0.0,0.0,0.0,0.0,0.121,-0.033,0.57,0.0,0.0,0.0,0.0,0.0,0.0,0.0,0.0,0.0,-0.681,0.761,7.06,0.0,0.0,0.0,0.0,0.0,0.0,0.0,0.0,0.0
1576083364301380360,1223,0,,0.0,0.0,0.0,0.0,0.0,0.0,0.0,0.0,0.0,0.0,0.0,0.0,0.0,-0.066,0.046,0.7,0.0,0.0,0.0,0.0,0.0,0.0,0.0,0.0,0.0,-1.222,-1.921,9.0,0.0,0.0,0.0,0.0,0.0,0.0,0.0,0.0,0.0
1576083364372173454,1224,0,,0.0,0.0,0.0,0.0,0.0,0.0,0.0,0.0,0.0,0.0,0.0,0.0,0.0,-0.108,0.032,0.73,0.0,0.0,0.0,0.0,0.0,0.0,0.0,0.0,0.0,-0.345,-0.332,9.31,0.0,0.0,0.0,0.0,0.0,0.0,0.0,0.0,0.0
1576083364435498861,1225,0,,0.0,0.0,0.0,0.0,0.0,0.0,0.0,0.0,0.0,0.0,0.0,0.0,0.0,-0.006,-0.026,0.78,0.0,0.0,0.0,0.0,0.0,0.0,0.0,0.0,0.0,-0.975,-0.694,12.26,0.0,0.0,0.0,0.0,0.0,0.0,0.0,0.0,0.0
1576083364518619345,1226,0,,0.0,0.0,0.0,0.0,0.0,0.0,0.0,0.0,0.0,0.0,0.0,0.0,0.0,0.041,-0.009,0.79,0.0,0.0,0.0,0.0,0.0,0.0,0.0,0.0,0.0,-0.574,1.047,7.08,0.0,0.0,0.0,0.0,0.0,0.0,0.0,0.0,0.0
1576083364573579834,1227,0,,0.0,0.0,0.0,0.0,0.0,0.0,0.0,0.0,0.0,0.0,0.0,0.0,0.0,-0.084,-0.031,0.68,0.0,0.0,0.0,0.0,0.0,0.0,0.0,0.0,0.0,-0.89,-0.63,9.82,0.0,0.0,0.0,0.0,0.0,0.0,0.0,0.0,0.0
1576083364641011921,1228,0,,0.0,0.0,0.0,0.0,0.0,0.0,0.0,0.0,0.0,0.0,0.0,0.0,0.0,0.013,0.007,0.65,0.0,0.0,0.0,0.0,0.0,0.0,0.0,0.0,0.0,-1.583,0.903,8.89,0.0,0.0,0.0,0.0,0.0,0.0,0.0,0.0,0.0
1576083364770977426,1229,0,,0.0,0.0,0.0,0.0,0.0,0.0,0.0,0.0,0.0,0.0,0.0,0.0,0.0,-0.0,-0.02,0.74,0.0,0.0,0.0,0.0,0.0,0.0,0.0,0.0,0.0,-2.646,0.189,10.5,0.0,0.0,0.0,0.0,0.0,0.0,0.0,0.0,0.0
1576083364907671325,1230,0,,0.0,0.0,0.0,0.0,0.0,0.0,0.0,0.0,0.0,0.0,0.0,0.0,0.0,-0.004,-0.018,0.78,0.0,0.0,0.0,0.0,0.0,0.0,0.0,0.0,0.0,-1.671,0.552,9.06,0.0,0.0,0.0,0.0,0.0,0.0,0.0,0.0,0.0
1576083365041256662,1231,0,,0.0,0.0,0.0,0.0,0.0,0.0,0.0,0.0,0.0,0.0,0.0,0.0,0.0,0.044,0.03,0.75,0.0,0.0,0.0,0.0,0.0,0.0,0.0,0.0,0.0,-0.419,0.863,13.98,0.0,0.0,0.0,0.0,0.0,0.0,0.0,0.0,0.0
1576083365164513701,1232,0,,0.0,0.0,0.0,0.0,0.0,0.0,0.0,0.0,0.0,0.0,0.0,0.0,0.0,0.012,-0.014,0.69,0.0,0.0,0.0,0.0,0.0,0.0,0.0,0.0,0.0,-0.961,1.656,9.05,0.0,0.0,0.0,0.0,0.0,0.0,0.0,0.0,0.0
1576083365235389960,1233,0,,0.0,0.0,0.0,0.0,0.0,0.0,0.0,0.0,0.0,0.0,0.0,0.0,0.0,-0.003,0.001,0.65,0.0,0.0,0.0,0.0,0.0,0.0,0.0,0.0,0.0,-1.221,-0.049,11.13,0.0,0.0,0.0,0.0,0.0,0.0,0.0,0.0,0.0
1576083365303589530,1234,0,,0.0,0.0,0.0,0.0,0.0,0.0,0.0,0.0,0.0,0.0,0.0,0.0,0.0,0.007,0.025,0.57,0.0,0.0,0.0,0.0,0.0,0.0,0.0,0.0,0.0,-1.061,1.282,8.23,0.0,0.0,0.0,0.0,0.0,0.0,0.0,0.0,0.0
1576083365368574470,1235,0,,0.0,0.0,0.0,0.0,0.0,0.0,0.0,0.0,0.0,0.0,0.0,0.0,0.0,0.01,0.01,0.53,0.0,0.0,0.0,0.0,0.0,0.0,0.0,0.0,0.0,-0.741,1.364,9.53,0.0,0.0,0.0,0.0,0.0,0.0,0.0,0.0,0.0
1576083365436504965,1236,0,,0.0,0.0,0.0,0.0,0.0,0.0,0.0,0.0,0.0,0.0,0.0,0.0,0.0,-0.016,-0.009,0.41,0.0,0.0,0.0,0.0,0.0,0.0,0.0,0.0,0.0,-0.681,1.352,8.9,0.0,0.0,0.0,0.0,0.0,0.0,0.0,0.0,0.0
1576083365501359383,1237,0,,0.0,0.0,0.0,0.0,0.0,0.0,0.0,0.0,0.0,0.0,0.0,0.0,0.0,-0.037,-0.015,0.33,0.0,0.0,0.0,0.0,0.0,0.0,0.0,0.0,0.0,-1.376,1.519,10.48,0.0,0.0,0.0,0.0,0.0,0.0,0.0,0.0,0.0
1576083365577108497,1238,0,,0.0,0.0,0.0,0.0,0.0,0.0,0.0,0.0,0.0,0.0,0.0,0.0,0.0,-0.015,-0.006,0.24,0.0,0.0,0.0,0.0,0.0,0.0,0.0,0.0,0.0,-0.408,0.474,10.15,0.0,0.0,0.0,0.0,0.0,0.0,0.0,0.0,0.0
1576083365640856996,1239,0,,0.0,0.0,0.0,0.0,0.0,0.0,0.0,0.0,0.0,0.0,0.0,0.0,0.0,-0.042,0.011,0.19,0.0,0.0,0.0,0.0,0.0,0.0,0.0,0.0,0.0,-1.227,0.651,10.08,0.0,0.0,0.0,0.0,0.0,0.0,0.0,0.0,0.0
1576083365704153035,1240,0,,0.0,0.0,0.0,0.0,0.0,0.0,0.0,0.0,0.0,0.0,0.0,0.0,0.0,-0.023,0.002,0.21,0.0,0.0,0.0,0.0,0.0,0.0,0.0,0.0,0.0,-1.876,0.202,14.11,0.0,0.0,0.0,0.0,0.0,0.0,0.0,0.0,0.0
1576083365795183482,1241,0,,0.0,0.0,0.0,0.0,0.0,0.0,0.0,0.0,0.0,0.0,0.0,0.0,0.0,-0.009,0.009,0.21,0.0,0.0,0.0,0.0,0.0,0.0,0.0,0.0,0.0,0.11,0.52,12.17,0.0,0.0,0.0,0.0,0.0,0.0,0.0,0.0,0.0
1576083365835851147,1242,0,,0.0,0.0,0.0,0.0,0.0,0.0,0.0,0.0,0.0,0.0,0.0,0.0,0.0,0.009,0.012,0.24,0.0,0.0,0.0,0.0,0.0,0.0,0.0,0.0,0.0,-0.84,0.095,8.0,0.0,0.0,0.0,0.0,0.0,0.0,0.0,0.0,0.0
1576083365906125841,1243,0,,0.0,0.0,0.0,0.0,0.0,0.0,0.0,0.0,0.0,0.0,0.0,0.0,0.0,0.043,-0.019,0.15,0.0,0.0,0.0,0.0,0.0,0.0,0.0,0.0,0.0,0.052,0.179,10.96,0.0,0.0,0.0,0.0,0.0,0.0,0.0,0.0,0.0
1576083365976472711,1244,0,,0.0,0.0,0.0,0.0,0.0,0.0,0.0,0.0,0.0,0.0,0.0,0.0,0.0,-0.06,0.436,-0.01,0.0,0.0,0.0,0.0,0.0,0.0,0.0,0.0,0.0,-0.168,-0.037,7.81,0.0,0.0,0.0,0.0,0.0,0.0,0.0,0.0,0.0
1576083366106662788,1245,0,,0.0,0.0,0.0,0.0,0.0,0.0,0.0,0.0,0.0,0.0,0.0,0.0,0.0,-0.109,-0.23,0.18,0.0,0.0,0.0,0.0,0.0,0.0,0.0,0.0,0.0,-0.74,0.286,16.13,0.0,0.0,0.0,0.0,0.0,0.0,0.0,0.0,0.0
1576083366172424738,1246,0,,0.0,0.0,0.0,0.0,0.0,0.0,0.0,0.0,0.0,0.0,0.0,0.0,0.0,0.018,-0.077,0.09,0.0,0.0,0.0,0.0,0.0,0.0,0.0,0.0,0.0,-2.081,-2.721,12.82,0.0,0.0,0.0,0.0,0.0,0.0,0.0,0.0,0.0
1576083366242574100,1247,0,,0.0,0.0,0.0,0.0,0.0,0.0,0.0,0.0,0.0,0.0,0.0,0.0,0.0,-0.07,-0.002,0.15,0.0,0.0,0.0,0.0,0.0,0.0,0.0,0.0,0.0,-0.555,1.314,5.01,0.0,0.0,0.0,0.0,0.0,0.0,0.0,0.0,0.0
1576083366368599865,1248,0,,0.0,0.0,0.0,0.0,0.0,0.0,0.0,0.0,0.0,0.0,0.0,0.0,0.0,0.018,-0.006,0.02,0.0,0.0,0.0,0.0,0.0,0.0,0.0,0.0,0.0,-1.058,2.685,12.42,0.0,0.0,0.0,0.0,0.0,0.0,0.0,0.0,0.0
1576083366436342063,1249,0,,0.0,0.0,0.0,0.0,0.0,0.0,0.0,0.0,0.0,0.0,0.0,0.0,0.0,0.066,0.028,0.02,0.0,0.0,0.0,0.0,0.0,0.0,0.0,0.0,0.0,-0.537,-0.817,9.01,0.0,0.0,0.0,0.0,0.0,0.0,0.0,0.0,0.0
1576083366499191019,1250,0,,0.0,0.0,0.0,0.0,0.0,0.0,0.0,0.0,0.0,0.0,0.0,0.0,0.0,-0.004,-0.009,0.0,0.0,0.0,0.0,0.0,0.0,0.0,0.0,0.0,0.0,-0.937,1.403,8.69,0.0,0.0,0.0,0.0,0.0,0.0,0.0,0.0,0.0
1576083366567802336,1251,0,,0.0,0.0,0.0,0.0,0.0,0.0,0.0,0.0,0.0,0.0,0.0,0.0,0.0,0.017,0.002,0.01,0.0,0.0,0.0,0.0,0.0,0.0,0.0,0.0,0.0,-0.954,-0.63,10.06,0.0,0.0,0.0,0.0,0.0,0.0,0.0,0.0,0.0
1576083366636217202,1252,0,,0.0,0.0,0.0,0.0,0.0,0.0,0.0,0.0,0.0,0.0,0.0,0.0,0.0,-0.011,0.02,0.02,0.0,0.0,0.0,0.0,0.0,0.0,0.0,0.0,0.0,-1.895,1.21,12.13,0.0,0.0,0.0,0.0,0.0,0.0,0.0,0.0,0.0
1576083366700899950,1253,0,,0.0,0.0,0.0,0.0,0.0,0.0,0.0,0.0,0.0,0.0,0.0,0.0,0.0,0.0,0.004,0.04,0.0,0.0,0.0,0.0,0.0,0.0,0.0,0.0,0.0,0.156,0.32,8.96,0.0,0.0,0.0,0.0,0.0,0.0,0.0,0.0,0.0
1576083366769714402,1254,0,,0.0,0.0,0.0,0.0,0.0,0.0,0.0,0.0,0.0,0.0,0.0,0.0,0.0,0.028,0.004,0.04,0.0,0.0,0.0,0.0,0.0,0.0,0.0,0.0,0.0,-0.565,-0.081,11.77,0.0,0.0,0.0,0.0,0.0,0.0,0.0,0.0,0.0
1576083366834700930,1255,0,,0.0,0.0,0.0,0.0,0.0,0.0,0.0,0.0,0.0,0.0,0.0,0.0,0.0,0.056,-0.036,0.03,0.0,0.0,0.0,0.0,0.0,0.0,0.0,0.0,0.0,-0.518,1.369,12.0,0.0,0.0,0.0,0.0,0.0,0.0,0.0,0.0,0.0
1576083366902631152,1256,0,,0.0,0.0,0.0,0.0,0.0,0.0,0.0,0.0,0.0,0.0,0.0,0.0,0.0,0.018,0.008,0.0,0.0,0.0,0.0,0.0,0.0,0.0,0.0,0.0,0.0,-0.266,-0.682,11.6,0.0,0.0,0.0,0.0,0.0,0.0,0.0,0.0,0.0
1576083366971338383,1257,0,,0.0,0.0,0.0,0.0,0.0,0.0,0.0,0.0,0.0,0.0,0.0,0.0,0.0,-0.042,-0.01,-0.05,0.0,0.0,0.0,0.0,0.0,0.0,0.0,0.0,0.0,-0.319,0.441,9.25,0.0,0.0,0.0,0.0,0.0,0.0,0.0,0.0,0.0
1576083367041157504,1258,0,,0.0,0.0,0.0,0.0,0.0,0.0,0.0,0.0,0.0,0.0,0.0,0.0,0.0,-0.013,-0.016,-0.07,0.0,0.0,0.0,0.0,0.0,0.0,0.0,0.0,0.0,0.227,-0.431,10.94,0.0,0.0,0.0,0.0,0.0,0.0,0.0,0.0,0.0
1576083367108433331,1259,0,,0.0,0.0,0.0,0.0,0.0,0.0,0.0,0.0,0.0,0.0,0.0,0.0,0.0,0.085,0.019,-0.06,0.0,0.0,0.0,0.0,0.0,0.0,0.0,0.0,0.0,-0.604,1.679,11.31,0.0,0.0,0.0,0.0,0.0,0.0,0.0,0.0,0.0
1576083367171769463,1260,0,,0.0,0.0,0.0,0.0,0.0,0.0,0.0,0.0,0.0,0.0,0.0,0.0,0.0,0.016,0.005,0.0,0.0,0.0,0.0,0.0,0.0,0.0,0.0,0.0,0.0,-1.094,-0.575,9.2,0.0,0.0,0.0,0.0,0.0,0.0,0.0,0.0,0.0
1576083367241182728,1261,0,,0.0,0.0,0.0,0.0,0.0,0.0,0.0,0.0,0.0,0.0,0.0,0.0,0.0,0.072,0.004,0.07,0.0,0.0,0.0,0.0,0.0,0.0,0.0,0.0,0.0,1.254,1.124,5.47,0.0,0.0,0.0,0.0,0.0,0.0,0.0,0.0,0.0
1576083367306733995,1262,0,,0.0,0.0,0.0,0.0,0.0,0.0,0.0,0.0,0.0,0.0,0.0,0.0,0.0,0.118,0.284,0.19,0.0,0.0,0.0,0.0,0.0,0.0,0.0,0.0,0.0,-1.934,-0.316,2.42,0.0,0.0,0.0,0.0,0.0,0.0,0.0,0.0,0.0
1576083367371570312,1263,0,,0.0,0.0,0.0,0.0,0.0,0.0,0.0,0.0,0.0,0.0,0.0,0.0,0.0,-0.242,-0.295,0.5,0.0,0.0,0.0,0.0,0.0,0.0,0.0,0.0,0.0,1.891,1.557,8.01,0.0,0.0,0.0,0.0,0.0,0.0,0.0,0.0,0.0
1576083367508480395,1264,0,,0.0,0.0,0.0,0.0,0.0,0.0,0.0,0.0,0.0,0.0,0.0,0.0,0.0,-0.084,-0.029,-0.04,0.0,0.0,0.0,0.0,0.0,0.0,0.0,0.0,0.0,-0.226,0.652,14.07,0.0,0.0,0.0,0.0,0.0,0.0,0.0,0.0,0.0
1576083367632506657,1265,0,,0.0,0.0,0.0,0.0,0.0,0.0,0.0,0.0,0.0,0.0,0.0,0.0,0.0,0.065,0.091,-0.07,0.0,0.0,0.0,0.0,0.0,0.0,0.0,0.0,0.0,0.313,-0.293,10.9,0.0,0.0,0.0,0.0,0.0,0.0,0.0,0.0,0.0
1576083367699205768,1266,0,,0.0,0.0,0.0,0.0,0.0,0.0,0.0,0.0,0.0,0.0,0.0,0.0,0.0,-0.0,-0.069,-0.17,0.0,0.0,0.0,0.0,0.0,0.0,0.0,0.0,0.0,-0.194,0.507,8.48,0.0,0.0,0.0,0.0,0.0,0.0,0.0,0.0,0.0
1576083367771932623,1267,0,,0.0,0.0,0.0,0.0,0.0,0.0,0.0,0.0,0.0,0.0,0.0,0.0,0.0,0.036,0.011,-0.16,0.0,0.0,0.0,0.0,0.0,0.0,0.0,0.0,0.0,-0.548,-0.485,8.62,0.0,0.0,0.0,0.0,0.0,0.0,0.0,0.0,0.0
1576083367832882398,1268,0,,0.0,0.0,0.0,0.0,0.0,0.0,0.0,0.0,0.0,0.0,0.0,0.0,0.0,0.012,0.004,-0.16,0.0,0.0,0.0,0.0,0.0,0.0,0.0,0.0,0.0,-0.175,0.025,7.93,0.0,0.0,0.0,0.0,0.0,0.0,0.0,0.0,0.0
1576083367900415201,1269,0,,0.0,0.0,0.0,0.0,0.0,0.0,0.0,0.0,0.0,0.0,0.0,0.0,0.0,0.005,-0.006,-0.12,0.0,0.0,0.0,0.0,0.0,0.0,0.0,0.0,0.0,-0.403,0.08,8.77,0.0,0.0,0.0,0.0,0.0,0.0,0.0,0.0,0.0
1576083367967861255,1270,0,,0.0,0.0,0.0,0.0,0.0,0.0,0.0,0.0,0.0,0.0,0.0,0.0,0.0,0.02,0.006,-0.01,0.0,0.0,0.0,0.0,0.0,0.0,0.0,0.0,0.0,-1.174,0.34,11.09,0.0,0.0,0.0,0.0,0.0,0.0,0.0,0.0,0.0
1576083368040517145,1271,0,,0.0,0.0,0.0,0.0,0.0,0.0,0.0,0.0,0.0,0.0,0.0,0.0,0.0,0.004,0.019,0.04,0.0,0.0,0.0,0.0,0.0,0.0,0.0,0.0,0.0,-1.4,-0.262,10.88,0.0,0.0,0.0,0.0,0.0,0.0,0.0,0.0,0.0
1576083368104369919,1272,0,,0.0,0.0,0.0,0.0,0.0,0.0,0.0,0.0,0.0,0.0,0.0,0.0,0.0,-0.035,-0.006,0.02,0.0,0.0,0.0,0.0,0.0,0.0,0.0,0.0,0.0,-0.507,0.425,9.25,0.0,0.0,0.0,0.0,0.0,0.0,0.0,0.0,0.0
1576083368176823840,1273,0,,0.0,0.0,0.0,0.0,0.0,0.0,0.0,0.0,0.0,0.0,0.0,0.0,0.0,-0.033,0.007,-0.02,0.0,0.0,0.0,0.0,0.0,0.0,0.0,0.0,0.0,-0.036,0.283,7.95,0.0,0.0,0.0,0.0,0.0,0.0,0.0,0.0,0.0
1576083368235612870,1274,0,,0.0,0.0,0.0,0.0,0.0,0.0,0.0,0.0,0.0,0.0,0.0,0.0,0.0,-0.024,-0.029,-0.03,0.0,0.0,0.0,0.0,0.0,0.0,0.0,0.0,0.0,0.479,0.32,9.26,0.0,0.0,0.0,0.0,0.0,0.0,0.0,0.0,0.0
1576083368304700542,1275,0,,0.0,0.0,0.0,0.0,0.0,0.0,0.0,0.0,0.0,0.0,0.0,0.0,0.0,-0.009,0.004,-0.08,0.0,0.0,0.0,0.0,0.0,0.0,0.0,0.0,0.0,0.183,0.594,12.1,0.0,0.0,0.0,0.0,0.0,0.0,0.0,0.0,0.0
1576083368373964004,1276,0,,0.0,0.0,0.0,0.0,0.0,0.0,0.0,0.0,0.0,0.0,0.0,0.0,0.0,0.011,0.042,-0.11,0.0,0.0,0.0,0.0,0.0,0.0,0.0,0.0,0.0,-0.509,-0.169,8.7,0.0,0.0,0.0,0.0,0.0,0.0,0.0,0.0,0.0
1576083368439714972,1277,0,,0.0,0.0,0.0,0.0,0.0,0.0,0.0,0.0,0.0,0.0,0.0,0.0,0.0,0.027,0.0,-0.04,0.0,0.0,0.0,0.0,0.0,0.0,0.0,0.0,0.0,-1.329,0.257,10.15,0.0,0.0,0.0,0.0,0.0,0.0,0.0,0.0,0.0
1576083368506676062,1278,0,,0.0,0.0,0.0,0.0,0.0,0.0,0.0,0.0,0.0,0.0,0.0,0.0,0.0,0.09,0.048,-0.18,0.0,0.0,0.0,0.0,0.0,0.0,0.0,0.0,0.0,0.263,-0.576,4.67,0.0,0.0,0.0,0.0,0.0,0.0,0.0,0.0,0.0
1576083368571938539,1279,0,,0.0,0.0,0.0,0.0,0.0,0.0,0.0,0.0,0.0,0.0,0.0,0.0,0.0,0.02,-0.011,0.21,0.0,0.0,0.0,0.0,0.0,0.0,0.0,0.0,0.0,-0.537,1.707,10.95,0.0,0.0,0.0,0.0,0.0,0.0,0.0,0.0,0.0
1576083368712236598,1280,0,,0.0,0.0,0.0,0.0,0.0,0.0,0.0,0.0,0.0,0.0,0.0,0.0,0.0,-0.045,0.021,0.15,0.0,0.0,0.0,0.0,0.0,0.0,0.0,0.0,0.0,1.021,2.643,11.15,0.0,0.0,0.0,0.0,0.0,0.0,0.0,0.0,0.0
1576083368831643921,1281,0,,0.0,0.0,0.0,0.0,0.0,0.0,0.0,0.0,0.0,0.0,0.0,0.0,0.0,-0.076,-0.055,-0.01,0.0,0.0,0.0,0.0,0.0,0.0,0.0,0.0,0.0,-0.447,1.163,9.99,0.0,0.0,0.0,0.0,0.0,0.0,0.0,0.0,0.0
1576083368898951162,1282,0,,0.0,0.0,0.0,0.0,0.0,0.0,0.0,0.0,0.0,0.0,0.0,0.0,0.0,0.034,0.028,-0.05,0.0,0.0,0.0,0.0,0.0,0.0,0.0,0.0,0.0,0.119,0.056,8.83,0.0,0.0,0.0,0.0,0.0,0.0,0.0,0.0,0.0
1576083368967290658,1283,0,,0.0,0.0,0.0,0.0,0.0,0.0,0.0,0.0,0.0,0.0,0.0,0.0,0.0,0.016,-0.021,-0.12,0.0,0.0,0.0,0.0,0.0,0.0,0.0,0.0,0.0,-0.063,0.826,10.12,0.0,0.0,0.0,0.0,0.0,0.0,0.0,0.0,0.0
1576083369033200163,1284,0,,0.0,0.0,0.0,0.0,0.0,0.0,0.0,0.0,0.0,0.0,0.0,0.0,0.0,0.044,0.021,-0.07,0.0,0.0,0.0,0.0,0.0,0.0,0.0,0.0,0.0,-0.186,0.283,8.32,0.0,0.0,0.0,0.0,0.0,0.0,0.0,0.0,0.0
1576083369103191264,1285,0,,0.0,0.0,0.0,0.0,0.0,0.0,0.0,0.0,0.0,0.0,0.0,0.0,0.0,0.022,0.003,-0.06,0.0,0.0,0.0,0.0,0.0,0.0,0.0,0.0,0.0,0.142,1.122,9.36,0.0,0.0,0.0,0.0,0.0,0.0,0.0,0.0,0.0
1576083369169836479,1286,0,,0.0,0.0,0.0,0.0,0.0,0.0,0.0,0.0,0.0,0.0,0.0,0.0,0.0,-0.034,-0.023,-0.08,0.0,0.0,0.0,0.0,0.0,0.0,0.0,0.0,0.0,-0.237,0.686,8.51,0.0,0.0,0.0,0.0,0.0,0.0,0.0,0.0,0.0
1576083369233846953,1287,0,,0.0,0.0,0.0,0.0,0.0,0.0,0.0,0.0,0.0,0.0,0.0,0.0,0.0,-0.012,0.009,-0.09,0.0,0.0,0.0,0.0,0.0,0.0,0.0,0.0,0.0,0.315,-0.407,8.79,0.0,0.0,0.0,0.0,0.0,0.0,0.0,0.0,0.0
1576083369301922296,1288,0,,0.0,0.0,0.0,0.0,0.0,0.0,0.0,0.0,0.0,0.0,0.0,0.0,0.0,-0.008,0.003,-0.16,0.0,0.0,0.0,0.0,0.0,0.0,0.0,0.0,0.0,-0.651,-0.468,10.62,0.0,0.0,0.0,0.0,0.0,0.0,0.0,0.0,0.0
1576083369369846915,1289,0,,0.0,0.0,0.0,0.0,0.0,0.0,0.0,0.0,0.0,0.0,0.0,0.0,0.0,0.0,0.034,-0.17,0.0,0.0,0.0,0.0,0.0,0.0,0.0,0.0,0.0,-0.22,-0.768,8.02,0.0,0.0,0.0,0.0,0.0,0.0,0.0,0.0,0.0
1576083369439445765,1290,0,,0.0,0.0,0.0,0.0,0.0,0.0,0.0,0.0,0.0,0.0,0.0,0.0,0.0,0.021,-0.005,-0.14,0.0,0.0,0.0,0.0,0.0,0.0,0.0,0.0,0.0,-0.666,0.092,10.0,0.0,0.0,0.0,0.0,0.0,0.0,0.0,0.0,0.0
1576083369504541003,1291,0,,0.0,0.0,0.0,0.0,0.0,0.0,0.0,0.0,0.0,0.0,0.0,0.0,0.0,0.035,-0.023,-0.1,0.0,0.0,0.0,0.0,0.0,0.0,0.0,0.0,0.0,0.435,-0.027,7.38,0.0,0.0,0.0,0.0,0.0,0.0,0.0,0.0,0.0
1576083369572121057,1292,0,,0.0,0.0,0.0,0.0,0.0,0.0,0.0,0.0,0.0,0.0,0.0,0.0,0.0,0.023,0.043,-0.08,0.0,0.0,0.0,0.0,0.0,0.0,0.0,0.0,0.0,-0.233,0.455,10.58,0.0,0.0,0.0,0.0,0.0,0.0,0.0,0.0,0.0
1576083369640322363,1293,0,,0.0,0.0,0.0,0.0,0.0,0.0,0.0,0.0,0.0,0.0,0.0,0.0,0.0,-0.012,-0.009,-0.03,0.0,0.0,0.0,0.0,0.0,0.0,0.0,0.0,0.0,0.327,1.121,9.17,0.0,0.0,0.0,0.0,0.0,0.0,0.0,0.0,0.0
1576083369712313760,1294,0,,0.0,0.0,0.0,0.0,0.0,0.0,0.0,0.0,0.0,0.0,0.0,0.0,0.0,-0.012,0.038,-0.09,0.0,0.0,0.0,0.0,0.0,0.0,0.0,0.0,0.0,-0.906,0.433,8.83,0.0,0.0,0.0,0.0,0.0,0.0,0.0,0.0,0.0
1576083369773947199,1295,0,,0.0,0.0,0.0,0.0,0.0,0.0,0.0,0.0,0.0,0.0,0.0,0.0,0.0,-0.104,-0.038,-0.11,0.0,0.0,0.0,0.0,0.0,0.0,0.0,0.0,0.0,-1.15,1.593,5.58,0.0,0.0,0.0,0.0,0.0,0.0,0.0,0.0,0.0
1576083369840810808,1296,0,,0.0,0.0,0.0,0.0,0.0,0.0,0.0,0.0,0.0,0.0,0.0,0.0,0.0,-0.036,0.055,0.01,0.0,0.0,0.0,0.0,0.0,0.0,0.0,0.0,0.0,0.965,-0.003,8.42,0.0,0.0,0.0,0.0,0.0,0.0,0.0,0.0,0.0
1576083369911449040,1297,0,,0.0,0.0,0.0,0.0,0.0,0.0,0.0,0.0,0.0,0.0,0.0,0.0,0.0,-0.053,-0.008,0.07,0.0,0.0,0.0,0.0,0.0,0.0,0.0,0.0,0.0,-0.432,1.079,9.66,0.0,0.0,0.0,0.0,0.0,0.0,0.0,0.0,0.0
1576083369973170522,1298,0,,0.0,0.0,0.0,0.0,0.0,0.0,0.0,0.0,0.0,0.0,0.0,0.0,0.0,-0.055,0.017,0.11,0.0,0.0,0.0,0.0,0.0,0.0,0.0,0.0,0.0,-1.115,0.125,10.26,0.0,0.0,0.0,0.0,0.0,0.0,0.0,0.0,0.0
1576083370102124913,1299,0,,0.0,0.0,0.0,0.0,0.0,0.0,0.0,0.0,0.0,0.0,0.0,0.0,0.0,0.098,-0.032,0.07,0.0,0.0,0.0,0.0,0.0,0.0,0.0,0.0,0.0,-1.102,1.586,10.52,0.0,0.0,0.0,0.0,0.0,0.0,0.0,0.0,0.0
1576083370167690252,1300,0,,0.0,0.0,0.0,0.0,0.0,0.0,0.0,0.0,0.0,0.0,0.0,0.0,0.0,0.234,0.084,0.04,0.0,0.0,0.0,0.0,0.0,0.0,0.0,0.0,0.0,-1.247,2.629,6.92,0.0,0.0,0.0,0.0,0.0,0.0,0.0,0.0,0.0
1576083370234070387,1301,0,,0.0,0.0,0.0,0.0,0.0,0.0,0.0,0.0,0.0,0.0,0.0,0.0,0.0,-0.085,-0.041,-0.09,0.0,0.0,0.0,0.0,0.0,0.0,0.0,0.0,0.0,0.566,-1.262,8.81,0.0,0.0,0.0,0.0,0.0,0.0,0.0,0.0,0.0
1576083370300952243,1302,0,,0.0,0.0,0.0,0.0,0.0,0.0,0.0,0.0,0.0,0.0,0.0,0.0,0.0,-0.07,-0.02,-0.24,0.0,0.0,0.0,0.0,0.0,0.0,0.0,0.0,0.0,-0.556,0.336,8.55,0.0,0.0,0.0,0.0,0.0,0.0,0.0,0.0,0.0
1576083370369612601,1303,0,,0.0,0.0,0.0,0.0,0.0,0.0,0.0,0.0,0.0,0.0,0.0,0.0,0.0,0.024,-0.042,-0.1,0.0,0.0,0.0,0.0,0.0,0.0,0.0,0.0,0.0,1.074,0.4,9.83,0.0,0.0,0.0,0.0,0.0,0.0,0.0,0.0,0.0
1576083370441735841,1304,0,,0.0,0.0,0.0,0.0,0.0,0.0,0.0,0.0,0.0,0.0,0.0,0.0,0.0,-0.024,0.008,-0.16,0.0,0.0,0.0,0.0,0.0,0.0,0.0,0.0,0.0,-0.86,0.613,9.99,0.0,0.0,0.0,0.0,0.0,0.0,0.0,0.0,0.0
1576083370505326705,1305,0,,0.0,0.0,0.0,0.0,0.0,0.0,0.0,0.0,0.0,0.0,0.0,0.0,0.0,-0.004,-0.024,-0.15,0.0,0.0,0.0,0.0,0.0,0.0,0.0,0.0,0.0,-1.848,-0.531,9.38,0.0,0.0,0.0,0.0,0.0,0.0,0.0,0.0,0.0
1576083370572126838,1306,0,,0.0,0.0,0.0,0.0,0.0,0.0,0.0,0.0,0.0,0.0,0.0,0.0,0.0,0.023,0.024,-0.08,0.0,0.0,0.0,0.0,0.0,0.0,0.0,0.0,0.0,-0.757,-0.212,9.53,0.0,0.0,0.0,0.0,0.0,0.0,0.0,0.0,0.0
1576083370639225837,1307,0,,0.0,0.0,0.0,0.0,0.0,0.0,0.0,0.0,0.0,0.0,0.0,0.0,0.0,0.001,-0.029,0.03,0.0,0.0,0.0,0.0,0.0,0.0,0.0,0.0,0.0,-1.077,0.362,9.74,0.0,0.0,0.0,0.0,0.0,0.0,0.0,0.0,0.0
1576083370704925584,1308,0,,0.0,0.0,0.0,0.0,0.0,0.0,0.0,0.0,0.0,0.0,0.0,0.0,0.0,0.031,-0.007,0.09,0.0,0.0,0.0,0.0,0.0,0.0,0.0,0.0,0.0,-0.967,-0.104,9.22,0.0,0.0,0.0,0.0,0.0,0.0,0.0,0.0,0.0
1576083370772949013,1309,0,,0.0,0.0,0.0,0.0,0.0,0.0,0.0,0.0,0.0,0.0,0.0,0.0,0.0,0.013,0.016,0.19,0.0,0.0,0.0,0.0,0.0,0.0,0.0,0.0,0.0,-0.462,0.839,9.93,0.0,0.0,0.0,0.0,0.0,0.0,0.0,0.0,0.0
1576083370837789716,1310,0,,0.0,0.0,0.0,0.0,0.0,0.0,0.0,0.0,0.0,0.0,0.0,0.0,0.0,-0.014,-0.022,0.14,0.0,0.0,0.0,0.0,0.0,0.0,0.0,0.0,0.0,-0.505,0.613,11.89,0.0,0.0,0.0,0.0,0.0,0.0,0.0,0.0,0.0
1576083370915325870,1311,0,,0.0,0.0,0.0,0.0,0.0,0.0,0.0,0.0,0.0,0.0,0.0,0.0,0.0,-0.03,0.016,0.1,0.0,0.0,0.0,0.0,0.0,0.0,0.0,0.0,0.0,-0.137,-0.013,9.24,0.0,0.0,0.0,0.0,0.0,0.0,0.0,0.0,0.0
1576083370979414766,1312,0,,0.0,0.0,0.0,0.0,0.0,0.0,0.0,0.0,0.0,0.0,0.0,0.0,0.0,0.046,0.014,0.0,0.0,0.0,0.0,0.0,0.0,0.0,0.0,0.0,0.0,0.004,0.279,10.02,0.0,0.0,0.0,0.0,0.0,0.0,0.0,0.0,0.0
1576083371109954705,1313,0,,0.0,0.0,0.0,0.0,0.0,0.0,0.0,0.0,0.0,0.0,0.0,0.0,0.0,0.037,-0.007,0.0,0.0,0.0,0.0,0.0,0.0,0.0,0.0,0.0,0.0,0.041,0.268,5.7,0.0,0.0,0.0,0.0,0.0,0.0,0.0,0.0,0.0
1576083371180418070,1314,0,,0.0,0.0,0.0,0.0,0.0,0.0,0.0,0.0,0.0,0.0,0.0,0.0,0.0,0.028,0.095,-0.2,0.0,0.0,0.0,0.0,0.0,0.0,0.0,0.0,0.0,0.173,-1.032,7.4,0.0,0.0,0.0,0.0,0.0,0.0,0.0,0.0,0.0
1576083371301340955,1315,0,,0.0,0.0,0.0,0.0,0.0,0.0,0.0,0.0,0.0,0.0,0.0,0.0,0.0,-0.022,0.035,-0.01,0.0,0.0,0.0,0.0,0.0,0.0,0.0,0.0,0.0,-1.301,-0.814,16.16,0.0,0.0,0.0,0.0,0.0,0.0,0.0,0.0,0.0
1576083371367005260,1316,0,,0.0,0.0,0.0,0.0,0.0,0.0,0.0,0.0,0.0,0.0,0.0,0.0,0.0,-0.017,-0.041,-0.09,0.0,0.0,0.0,0.0,0.0,0.0,0.0,0.0,0.0,-0.199,0.908,6.89,0.0,0.0,0.0,0.0,0.0,0.0,0.0,0.0,0.0
1576083371435544283,1317,0,,0.0,0.0,0.0,0.0,0.0,0.0,0.0,0.0,0.0,0.0,0.0,0.0,0.0,0.005,0.014,-0.05,0.0,0.0,0.0,0.0,0.0,0.0,0.0,0.0,0.0,-0.048,-0.246,12.2,0.0,0.0,0.0,0.0,0.0,0.0,0.0,0.0,0.0
1576083371502616628,1318,0,,0.0,0.0,0.0,0.0,0.0,0.0,0.0,0.0,0.0,0.0,0.0,0.0,0.0,-0.045,0.018,-0.07,0.0,0.0,0.0,0.0,0.0,0.0,0.0,0.0,0.0,-0.195,0.508,6.58,0.0,0.0,0.0,0.0,0.0,0.0,0.0,0.0,0.0
1576083371571137673,1319,0,,0.0,0.0,0.0,0.0,0.0,0.0,0.0,0.0,0.0,0.0,0.0,0.0,0.0,-0.011,0.028,-0.0,0.0,0.0,0.0,0.0,0.0,0.0,0.0,0.0,0.0,-0.452,0.171,7.72,0.0,0.0,0.0,0.0,0.0,0.0,0.0,0.0,0.0
1576083371635154244,1320,0,,0.0,0.0,0.0,0.0,0.0,0.0,0.0,0.0,0.0,0.0,0.0,0.0,0.0,-0.037,-0.041,-0.02,0.0,0.0,0.0,0.0,0.0,0.0,0.0,0.0,0.0,-0.027,0.859,8.49,0.0,0.0,0.0,0.0,0.0,0.0,0.0,0.0,0.0
1576083371704992137,1321,0,,0.0,0.0,0.0,0.0,0.0,0.0,0.0,0.0,0.0,0.0,0.0,0.0,0.0,-0.025,0.018,0.03,0.0,0.0,0.0,0.0,0.0,0.0,0.0,0.0,0.0,-0.14,0.021,10.24,0.0,0.0,0.0,0.0,0.0,0.0,0.0,0.0,0.0
1576083371771824597,1322,0,,0.0,0.0,0.0,0.0,0.0,0.0,0.0,0.0,0.0,0.0,0.0,0.0,0.0,-0.001,0.0,-0.01,0.0,0.0,0.0,0.0,0.0,0.0,0.0,0.0,0.0,0.237,-0.304,7.7,0.0,0.0,0.0,0.0,0.0,0.0,0.0,0.0,0.0
1576083371838517284,1323,0,,0.0,0.0,0.0,0.0,0.0,0.0,0.0,0.0,0.0,0.0,0.0,0.0,0.0,0.054,-0.015,-0.05,0.0,0.0,0.0,0.0,0.0,0.0,0.0,0.0,0.0,0.005,0.775,12.61,0.0,0.0,0.0,0.0,0.0,0.0,0.0,0.0,0.0
1576083371907373978,1324,0,,0.0,0.0,0.0,0.0,0.0,0.0,0.0,0.0,0.0,0.0,0.0,0.0,0.0,0.004,-0.013,-0.08,0.0,0.0,0.0,0.0,0.0,0.0,0.0,0.0,0.0,0.216,0.018,7.02,0.0,0.0,0.0,0.0,0.0,0.0,0.0,0.0,0.0
1576083371978581555,1325,0,,0.0,0.0,0.0,0.0,0.0,0.0,0.0,0.0,0.0,0.0,0.0,0.0,0.0,0.009,-0.039,-0.13,0.0,0.0,0.0,0.0,0.0,0.0,0.0,0.0,0.0,0.021,0.567,11.29,0.0,0.0,0.0,0.0,0.0,0.0,0.0,0.0,0.0
1576083372039283540,1326,0,,0.0,0.0,0.0,0.0,0.0,0.0,0.0,0.0,0.0,0.0,0.0,0.0,0.0,0.024,0.083,-0.03,0.0,0.0,0.0,0.0,0.0,0.0,0.0,0.0,0.0,0.058,0.545,10.51,0.0,0.0,0.0,0.0,0.0,0.0,0.0,0.0,0.0
1576083372106713323,1327,0,,0.0,0.0,0.0,0.0,0.0,0.0,0.0,0.0,0.0,0.0,0.0,0.0,0.0,0.031,0.002,-0.01,0.0,0.0,0.0,0.0,0.0,0.0,0.0,0.0,0.0,-0.146,0.651,8.36,0.0,0.0,0.0,0.0,0.0,0.0,0.0,0.0,0.0
1576083372196947676,1328,0,,0.0,0.0,0.0,0.0,0.0,0.0,0.0,0.0,0.0,0.0,0.0,0.0,0.0,-0.029,0.006,0.1,0.0,0.0,0.0,0.0,0.0,0.0,0.0,0.0,0.0,-0.628,0.295,9.45,0.0,0.0,0.0,0.0,0.0,0.0,0.0,0.0,0.0
1576083372263334386,1329,0,,0.0,0.0,0.0,0.0,0.0,0.0,0.0,0.0,0.0,0.0,0.0,0.0,0.0,-0.02,-0.014,0.07,0.0,0.0,0.0,0.0,0.0,0.0,0.0,0.0,0.0,-0.787,-0.898,9.51,0.0,0.0,0.0,0.0,0.0,0.0,0.0,0.0,0.0
1576083372307890440,1330,0,,0.0,0.0,0.0,0.0,0.0,0.0,0.0,0.0,0.0,0.0,0.0,0.0,0.0,0.017,0.018,0.08,0.0,0.0,0.0,0.0,0.0,0.0,0.0,0.0,0.0,-0.153,0.63,8.39,0.0,0.0,0.0,0.0,0.0,0.0,0.0,0.0,0.0
1576083372374579615,1331,0,,0.0,0.0,0.0,0.0,0.0,0.0,0.0,0.0,0.0,0.0,0.0,0.0,0.0,-0.004,0.002,0.01,0.0,0.0,0.0,0.0,0.0,0.0,0.0,0.0,0.0,-0.021,-0.402,5.94,0.0,0.0,0.0,0.0,0.0,0.0,0.0,0.0,0.0
1576083372469257856,1332,0,,0.0,0.0,0.0,0.0,0.0,0.0,0.0,0.0,0.0,0.0,0.0,0.0,0.0,-0.032,-0.002,0.04,0.0,0.0,0.0,0.0,0.0,0.0,0.0,0.0,0.0,-1.026,0.308,10.24,0.0,0.0,0.0,0.0,0.0,0.0,0.0,0.0,0.0
1576083372566101697,1333,0,,0.0,0.0,0.0,0.0,0.0,0.0,0.0,0.0,0.0,0.0,0.0,0.0,0.0,-0.049,-0.007,-0.0,0.0,0.0,0.0,0.0,0.0,0.0,0.0,0.0,0.0,1.189,-0.968,4.21,0.0,0.0,0.0,0.0,0.0,0.0,0.0,0.0,0.0
1576083372632262809,1334,0,,0.0,0.0,0.0,0.0,0.0,0.0,0.0,0.0,0.0,0.0,0.0,0.0,0.0,0.081,0.09,-0.22,0.0,0.0,0.0,0.0,0.0,0.0,0.0,0.0,0.0,-0.714,1.008,8.14,0.0,0.0,0.0,0.0,0.0,0.0,0.0,0.0,0.0
1576083372700794397,1335,0,,0.0,0.0,0.0,0.0,0.0,0.0,0.0,0.0,0.0,0.0,0.0,0.0,0.0,-0.088,-0.087,0.18,0.0,0.0,0.0,0.0,0.0,0.0,0.0,0.0,0.0,-0.694,-0.555,16.91,0.0,0.0,0.0,0.0,0.0,0.0,0.0,0.0,0.0
1576083372767018711,1336,0,,0.0,0.0,0.0,0.0,0.0,0.0,0.0,0.0,0.0,0.0,0.0,0.0,0.0,-0.078,-0.082,0.06,0.0,0.0,0.0,0.0,0.0,0.0,0.0,0.0,0.0,0.458,-0.677,25.35,0.0,0.0,0.0,0.0,0.0,0.0,0.0,0.0,0.0
1576083372835558379,1337,0,,0.0,0.0,0.0,0.0,0.0,0.0,0.0,0.0,0.0,0.0,0.0,0.0,0.0,0.091,0.072,0.04,0.0,0.0,0.0,0.0,0.0,0.0,0.0,0.0,0.0,-0.931,-0.378,9.75,0.0,0.0,0.0,0.0,0.0,0.0,0.0,0.0,0.0
1576083372901441202,1338,0,,0.0,0.0,0.0,0.0,0.0,0.0,0.0,0.0,0.0,0.0,0.0,0.0,0.0,-0.029,-0.008,0.03,0.0,0.0,0.0,0.0,0.0,0.0,0.0,0.0,0.0,0.633,-0.16,10.47,0.0,0.0,0.0,0.0,0.0,0.0,0.0,0.0,0.0
1576083372971701199,1339,0,,0.0,0.0,0.0,0.0,0.0,0.0,0.0,0.0,0.0,0.0,0.0,0.0,0.0,0.061,-0.031,-0.1,0.0,0.0,0.0,0.0,0.0,0.0,0.0,0.0,0.0,-0.831,1.222,9.22,0.0,0.0,0.0,0.0,0.0,0.0,0.0,0.0,0.0
1576083373035702670,1340,0,,0.0,0.0,0.0,0.0,0.0,0.0,0.0,0.0,0.0,0.0,0.0,0.0,0.0,0.036,0.027,-0.06,0.0,0.0,0.0,0.0,0.0,0.0,0.0,0.0,0.0,-0.072,-0.471,10.57,0.0,0.0,0.0,0.0,0.0,0.0,0.0,0.0,0.0
1576083373102215781,1341,0,,0.0,0.0,0.0,0.0,0.0,0.0,0.0,0.0,0.0,0.0,0.0,0.0,0.0,0.012,0.024,-0.07,0.0,0.0,0.0,0.0,0.0,0.0,0.0,0.0,0.0,-0.916,0.714,9.3,0.0,0.0,0.0,0.0,0.0,0.0,0.0,0.0,0.0
1576083373171948493,1342,0,,0.0,0.0,0.0,0.0,0.0,0.0,0.0,0.0,0.0,0.0,0.0,0.0,0.0,-0.011,-0.002,0.02,0.0,0.0,0.0,0.0,0.0,0.0,0.0,0.0,0.0,-0.542,-0.629,7.47,0.0,0.0,0.0,0.0,0.0,0.0,0.0,0.0,0.0
1576083373243384745,1343,0,,0.0,0.0,0.0,0.0,0.0,0.0,0.0,0.0,0.0,0.0,0.0,0.0,0.0,0.028,0.267,0.06,0.0,0.0,0.0,0.0,0.0,0.0,0.0,0.0,0.0,-11.414,-2.414,6.73,0.0,0.0,0.0,0.0,0.0,0.0,0.0,0.0,0.0
1576083373306744770,1344,0,,0.0,0.0,0.0,0.0,0.0,0.0,0.0,0.0,0.0,0.0,0.0,0.0,0.0,0.062,0.137,0.26,0.0,0.0,0.0,0.0,0.0,0.0,0.0,0.0,0.0,-0.287,0.117,4.58,0.0,0.0,0.0,0.0,0.0,0.0,0.0,0.0,0.0
1576083373375753624,1345,0,,0.0,0.0,0.0,0.0,0.0,0.0,0.0,0.0,0.0,0.0,0.0,0.0,0.0,0.032,0.018,0.17,0.0,0.0,0.0,0.0,0.0,0.0,0.0,0.0,0.0,-0.463,0.418,8.68,0.0,0.0,0.0,0.0,0.0,0.0,0.0,0.0,0.0
1576083373474627877,1346,0,,0.0,0.0,0.0,0.0,0.0,0.0,0.0,0.0,0.0,0.0,0.0,0.0,0.0,-0.025,-0.011,0.14,0.0,0.0,0.0,0.0,0.0,0.0,0.0,0.0,0.0,-0.786,0.863,8.82,0.0,0.0,0.0,0.0,0.0,0.0,0.0,0.0,0.0
1576083373573474721,1347,0,,0.0,0.0,0.0,0.0,0.0,0.0,0.0,0.0,0.0,0.0,0.0,0.0,0.0,-0.031,0.015,0.1,0.0,0.0,0.0,0.0,0.0,0.0,0.0,0.0,0.0,-2.553,1.186,7.87,0.0,0.0,0.0,0.0,0.0,0.0,0.0,0.0,0.0
1576083373661476508,1348,0,,0.0,0.0,0.0,0.0,0.0,0.0,0.0,0.0,0.0,0.0,0.0,0.0,0.0,-0.046,-0.078,-0.12,0.0,0.0,0.0,0.0,0.0,0.0,0.0,0.0,0.0,0.228,-1.174,12.05,0.0,0.0,0.0,0.0,0.0,0.0,0.0,0.0,0.0
1576083373713213494,1349,0,,0.0,0.0,0.0,0.0,0.0,0.0,0.0,0.0,0.0,0.0,0.0,0.0,0.0,0.051,-0.003,-0.14,0.0,0.0,0.0,0.0,0.0,0.0,0.0,0.0,0.0,0.435,-0.32,10.45,0.0,0.0,0.0,0.0,0.0,0.0,0.0,0.0,0.0
1576083373831769027,1350,0,,0.0,0.0,0.0,0.0,0.0,0.0,0.0,0.0,0.0,0.0,0.0,0.0,0.0,0.081,0.05,-0.19,0.0,0.0,0.0,0.0,0.0,0.0,0.0,0.0,0.0,-0.296,0.322,9.32,0.0,0.0,0.0,0.0,0.0,0.0,0.0,0.0,0.0
1576083373900444841,1351,0,,0.0,0.0,0.0,0.0,0.0,0.0,0.0,0.0,0.0,0.0,0.0,0.0,0.0,0.043,-0.092,-0.25,0.0,0.0,0.0,0.0,0.0,0.0,0.0,0.0,0.0,-0.144,0.405,8.18,0.0,0.0,0.0,0.0,0.0,0.0,0.0,0.0,0.0
1576083373967813195,1352,0,,0.0,0.0,0.0,0.0,0.0,0.0,0.0,0.0,0.0,0.0,0.0,0.0,0.0,0.015,-0.023,-0.26,0.0,0.0,0.0,0.0,0.0,0.0,0.0,0.0,0.0,-0.805,-0.397,8.51,0.0,0.0,0.0,0.0,0.0,0.0,0.0,0.0,0.0
1576083374036489524,1353,0,,0.0,0.0,0.0,0.0,0.0,0.0,0.0,0.0,0.0,0.0,0.0,0.0,0.0,-0.031,-0.048,-0.23,0.0,0.0,0.0,0.0,0.0,0.0,0.0,0.0,0.0,-0.792,0.784,16.99,0.0,0.0,0.0,0.0,0.0,0.0,0.0,0.0,0.0
1576083374100933686,1354,0,,0.0,0.0,0.0,0.0,0.0,0.0,0.0,0.0,0.0,0.0,0.0,0.0,0.0,0.081,0.169,-0.35,0.0,0.0,0.0,0.0,0.0,0.0,0.0,0.0,0.0,-0.752,-0.551,11.46,0.0,0.0,0.0,0.0,0.0,0.0,0.0,0.0,0.0
1576083374169191974,1355,0,,0.0,0.0,0.0,0.0,0.0,0.0,0.0,0.0,0.0,0.0,0.0,0.0,0.0,-0.066,-0.247,-0.24,0.0,0.0,0.0,0.0,0.0,0.0,0.0,0.0,0.0,-0.123,0.888,9.19,0.0,0.0,0.0,0.0,0.0,0.0,0.0,0.0,0.0
1576083374235212358,1356,0,,0.0,0.0,0.0,0.0,0.0,0.0,0.0,0.0,0.0,0.0,0.0,0.0,0.0,-0.066,0.022,-0.07,0.0,0.0,0.0,0.0,0.0,0.0,0.0,0.0,0.0,0.315,0.453,7.66,0.0,0.0,0.0,0.0,0.0,0.0,0.0,0.0,0.0
1576083374303237651,1357,0,,0.0,0.0,0.0,0.0,0.0,0.0,0.0,0.0,0.0,0.0,0.0,0.0,0.0,-0.164,0.058,-0.01,0.0,0.0,0.0,0.0,0.0,0.0,0.0,0.0,0.0,-3.116,-1.828,13.03,0.0,0.0,0.0,0.0,0.0,0.0,0.0,0.0,0.0
1576083374374663437,1358,0,,0.0,0.0,0.0,0.0,0.0,0.0,0.0,0.0,0.0,0.0,0.0,0.0,0.0,-0.02,0.0,0.16,0.0,0.0,0.0,0.0,0.0,0.0,0.0,0.0,0.0,0.711,0.418,12.07,0.0,0.0,0.0,0.0,0.0,0.0,0.0,0.0,0.0
1576083374441088110,1359,0,,0.0,0.0,0.0,0.0,0.0,0.0,0.0,0.0,0.0,0.0,0.0,0.0,0.0,-0.045,-0.065,0.12,0.0,0.0,0.0,0.0,0.0,0.0,0.0,0.0,0.0,-1.123,-0.553,8.53,0.0,0.0,0.0,0.0,0.0,0.0,0.0,0.0,0.0
1576083374509341515,1360,0,,0.0,0.0,0.0,0.0,0.0,0.0,0.0,0.0,0.0,0.0,0.0,0.0,0.0,-0.008,0.098,0.18,0.0,0.0,0.0,0.0,0.0,0.0,0.0,0.0,0.0,0.117,0.252,6.31,0.0,0.0,0.0,0.0,0.0,0.0,0.0,0.0,0.0
1576083374572236741,1361,0,,0.0,0.0,0.0,0.0,0.0,0.0,0.0,0.0,0.0,0.0,0.0,0.0,0.0,0.117,-0.054,0.26,0.0,0.0,0.0,0.0,0.0,0.0,0.0,0.0,0.0,-0.002,0.743,8.85,0.0,0.0,0.0,0.0,0.0,0.0,0.0,0.0,0.0
1576083374661588484,1362,0,,0.0,0.0,0.0,0.0,0.0,0.0,0.0,0.0,0.0,0.0,0.0,0.0,0.0,0.165,0.146,-0.05,0.0,0.0,0.0,0.0,0.0,0.0,0.0,0.0,0.0,0.855,0.77,18.36,0.0,0.0,0.0,0.0,0.0,0.0,0.0,0.0,0.0
1576083374775486382,1363,0,,0.0,0.0,0.0,0.0,0.0,0.0,0.0,0.0,0.0,0.0,0.0,0.0,0.0,-0.024,-0.097,0.02,0.0,0.0,0.0,0.0,0.0,0.0,0.0,0.0,0.0,0.435,0.893,13.01,0.0,0.0,0.0,0.0,0.0,0.0,0.0,0.0,0.0
1576083374862516286,1364,0,,0.0,0.0,0.0,0.0,0.0,0.0,0.0,0.0,0.0,0.0,0.0,0.0,0.0,0.068,0.001,-0.1,0.0,0.0,0.0,0.0,0.0,0.0,0.0,0.0,0.0,-0.303,0.626,9.67,0.0,0.0,0.0,0.0,0.0,0.0,0.0,0.0,0.0
1576083374908255457,1365,0,,0.0,0.0,0.0,0.0,0.0,0.0,0.0,0.0,0.0,0.0,0.0,0.0,0.0,-0.004,-0.004,-0.15,0.0,0.0,0.0,0.0,0.0,0.0,0.0,0.0,0.0,-0.246,0.444,9.08,0.0,0.0,0.0,0.0,0.0,0.0,0.0,0.0,0.0
1576083375033464739,1366,0,,0.0,0.0,0.0,0.0,0.0,0.0,0.0,0.0,0.0,0.0,0.0,0.0,0.0,-0.042,-0.001,-0.19,0.0,0.0,0.0,0.0,0.0,0.0,0.0,0.0,0.0,0.238,0.107,9.86,0.0,0.0,0.0,0.0,0.0,0.0,0.0,0.0,0.0
1576083375101713713,1367,0,,0.0,0.0,0.0,0.0,0.0,0.0,0.0,0.0,0.0,0.0,0.0,0.0,0.0,-0.053,0.002,-0.19,0.0,0.0,0.0,0.0,0.0,0.0,0.0,0.0,0.0,-0.303,0.139,8.3,0.0,0.0,0.0,0.0,0.0,0.0,0.0,0.0,0.0
1576083375167698746,1368,0,,0.0,0.0,0.0,0.0,0.0,0.0,0.0,0.0,0.0,0.0,0.0,0.0,0.0,-0.014,0.005,-0.2,0.0,0.0,0.0,0.0,0.0,0.0,0.0,0.0,0.0,-0.224,-0.327,10.17,0.0,0.0,0.0,0.0,0.0,0.0,0.0,0.0,0.0
1576083375237901009,1369,0,,0.0,0.0,0.0,0.0,0.0,0.0,0.0,0.0,0.0,0.0,0.0,0.0,0.0,0.003,-0.035,-0.2,0.0,0.0,0.0,0.0,0.0,0.0,0.0,0.0,0.0,0.527,1.028,9.57,0.0,0.0,0.0,0.0,0.0,0.0,0.0,0.0,0.0
1576083375303679671,1370,0,,0.0,0.0,0.0,0.0,0.0,0.0,0.0,0.0,0.0,0.0,0.0,0.0,0.0,0.012,0.011,-0.16,0.0,0.0,0.0,0.0,0.0,0.0,0.0,0.0,0.0,0.053,-0.357,8.09,0.0,0.0,0.0,0.0,0.0,0.0,0.0,0.0,0.0
1576083375372940564,1371,0,,0.0,0.0,0.0,0.0,0.0,0.0,0.0,0.0,0.0,0.0,0.0,0.0,0.0,0.018,0.017,-0.16,0.0,0.0,0.0,0.0,0.0,0.0,0.0,0.0,0.0,-0.115,0.201,10.01,0.0,0.0,0.0,0.0,0.0,0.0,0.0,0.0,0.0
1576083375434982884,1372,0,,0.0,0.0,0.0,0.0,0.0,0.0,0.0,0.0,0.0,0.0,0.0,0.0,0.0,0.031,-0.022,-0.16,0.0,0.0,0.0,0.0,0.0,0.0,0.0,0.0,0.0,-0.658,-0.939,8.34,0.0,0.0,0.0,0.0,0.0,0.0,0.0,0.0,0.0
1576083375505935792,1373,0,,0.0,0.0,0.0,0.0,0.0,0.0,0.0,0.0,0.0,0.0,0.0,0.0,0.0,0.002,0.013,-0.1,0.0,0.0,0.0,0.0,0.0,0.0,0.0,0.0,0.0,-0.591,0.128,8.72,0.0,0.0,0.0,0.0,0.0,0.0,0.0,0.0,0.0
1576083375575068900,1374,0,,0.0,0.0,0.0,0.0,0.0,0.0,0.0,0.0,0.0,0.0,0.0,0.0,0.0,0.045,0.036,0.0,0.0,0.0,0.0,0.0,0.0,0.0,0.0,0.0,0.0,-0.588,0.399,9.43,0.0,0.0,0.0,0.0,0.0,0.0,0.0,0.0,0.0
1576083375662385912,1375,0,,0.0,0.0,0.0,0.0,0.0,0.0,0.0,0.0,0.0,0.0,0.0,0.0,0.0,0.036,0.013,0.09,0.0,0.0,0.0,0.0,0.0,0.0,0.0,0.0,0.0,-0.445,-0.218,9.22,0.0,0.0,0.0,0.0,0.0,0.0,0.0,0.0,0.0
1576083375704901168,1376,0,,0.0,0.0,0.0,0.0,0.0,0.0,0.0,0.0,0.0,0.0,0.0,0.0,0.0,0.029,0.01,0.14,0.0,0.0,0.0,0.0,0.0,0.0,0.0,0.0,0.0,0.207,1.144,9.66,0.0,0.0,0.0,0.0,0.0,0.0,0.0,0.0,0.0
1576083375776623795,1377,0,,0.0,0.0,0.0,0.0,0.0,0.0,0.0,0.0,0.0,0.0,0.0,0.0,0.0,-0.041,-0.017,0.11,0.0,0.0,0.0,0.0,0.0,0.0,0.0,0.0,0.0,-0.298,-0.892,4.16,0.0,0.0,0.0,0.0,0.0,0.0,0.0,0.0,0.0
1576083375908058054,1378,0,,0.0,0.0,0.0,0.0,0.0,0.0,0.0,0.0,0.0,0.0,0.0,0.0,0.0,-0.024,0.019,0.08,0.0,0.0,0.0,0.0,0.0,0.0,0.0,0.0,0.0,-0.157,0.032,7.93,0.0,0.0,0.0,0.0,0.0,0.0,0.0,0.0,0.0
1576083375974434868,1379,0,,0.0,0.0,0.0,0.0,0.0,0.0,0.0,0.0,0.0,0.0,0.0,0.0,0.0,-0.027,0.019,-0.01,0.0,0.0,0.0,0.0,0.0,0.0,0.0,0.0,0.0,-0.962,0.868,10.75,0.0,0.0,0.0,0.0,0.0,0.0,0.0,0.0,0.0
1576083376063311276,1380,0,,0.0,0.0,0.0,0.0,0.0,0.0,0.0,0.0,0.0,0.0,0.0,0.0,0.0,0.035,0.01,-0.04,0.0,0.0,0.0,0.0,0.0,0.0,0.0,0.0,0.0,0.32,-0.967,22.18,0.0,0.0,0.0,0.0,0.0,0.0,0.0,0.0,0.0
1576083376111835591,1381,0,,0.0,0.0,0.0,0.0,0.0,0.0,0.0,0.0,0.0,0.0,0.0,0.0,0.0,0.029,-0.005,-0.03,0.0,0.0,0.0,0.0,0.0,0.0,0.0,0.0,0.0,0.205,0.283,10.69,0.0,0.0,0.0,0.0,0.0,0.0,0.0,0.0,0.0
1576083376175187340,1382,0,,0.0,0.0,0.0,0.0,0.0,0.0,0.0,0.0,0.0,0.0,0.0,0.0,0.0,-0.006,0.003,-0.04,0.0,0.0,0.0,0.0,0.0,0.0,0.0,0.0,0.0,-0.29,-0.006,9.28,0.0,0.0,0.0,0.0,0.0,0.0,0.0,0.0,0.0
1576083376299034173,1383,0,,0.0,0.0,0.0,0.0,0.0,0.0,0.0,0.0,0.0,0.0,0.0,0.0,0.0,0.03,0.044,-0.05,0.0,0.0,0.0,0.0,0.0,0.0,0.0,0.0,0.0,0.099,-0.293,11.01,0.0,0.0,0.0,0.0,0.0,0.0,0.0,0.0,0.0
1576083376367132405,1384,0,,0.0,0.0,0.0,0.0,0.0,0.0,0.0,0.0,0.0,0.0,0.0,0.0,0.0,-0.022,-0.033,-0.05,0.0,0.0,0.0,0.0,0.0,0.0,0.0,0.0,0.0,-0.699,-0.307,9.1,0.0,0.0,0.0,0.0,0.0,0.0,0.0,0.0,0.0
1576083376433524480,1385,0,,0.0,0.0,0.0,0.0,0.0,0.0,0.0,0.0,0.0,0.0,0.0,0.0,0.0,0.018,0.003,-0.01,0.0,0.0,0.0,0.0,0.0,0.0,0.0,0.0,0.0,-0.544,-0.028,8.68,0.0,0.0,0.0,0.0,0.0,0.0,0.0,0.0,0.0
1576083376501680289,1386,0,,0.0,0.0,0.0,0.0,0.0,0.0,0.0,0.0,0.0,0.0,0.0,0.0,0.0,0.042,0.006,-0.0,0.0,0.0,0.0,0.0,0.0,0.0,0.0,0.0,0.0,-0.543,0.559,11.05,0.0,0.0,0.0,0.0,0.0,0.0,0.0,0.0,0.0
1576083376568573604,1387,0,,0.0,0.0,0.0,0.0,0.0,0.0,0.0,0.0,0.0,0.0,0.0,0.0,0.0,0.027,0.016,0.01,0.0,0.0,0.0,0.0,0.0,0.0,0.0,0.0,0.0,-0.502,0.215,9.06,0.0,0.0,0.0,0.0,0.0,0.0,0.0,0.0,0.0
1576083376656868782,1388,0,,0.0,0.0,0.0,0.0,0.0,0.0,0.0,0.0,0.0,0.0,0.0,0.0,0.0,0.019,0.002,0.01,0.0,0.0,0.0,0.0,0.0,0.0,0.0,0.0,0.0,0.067,0.613,9.6,0.0,0.0,0.0,0.0,0.0,0.0,0.0,0.0,0.0
1576083376704410325,1389,0,,0.0,0.0,0.0,0.0,0.0,0.0,0.0,0.0,0.0,0.0,0.0,0.0,0.0,0.016,0.018,0.04,0.0,0.0,0.0,0.0,0.0,0.0,0.0,0.0,0.0,-0.284,0.753,9.74,0.0,0.0,0.0,0.0,0.0,0.0,0.0,0.0,0.0
1576083376772644704,1390,0,,0.0,0.0,0.0,0.0,0.0,0.0,0.0,0.0,0.0,0.0,0.0,0.0,0.0,-0.02,-0.002,0.05,0.0,0.0,0.0,0.0,0.0,0.0,0.0,0.0,0.0,-0.965,0.555,11.69,0.0,0.0,0.0,0.0,0.0,0.0,0.0,0.0,0.0
1576083376860460268,1391,0,,0.0,0.0,0.0,0.0,0.0,0.0,0.0,0.0,0.0,0.0,0.0,0.0,0.0,-0.01,0.008,0.03,0.0,0.0,0.0,0.0,0.0,0.0,0.0,0.0,0.0,-0.846,0.72,8.15,0.0,0.0,0.0,0.0,0.0,0.0,0.0,0.0,0.0
1576083376905278956,1392,0,,0.0,0.0,0.0,0.0,0.0,0.0,0.0,0.0,0.0,0.0,0.0,0.0,0.0,-0.002,-0.004,-0.0,0.0,0.0,0.0,0.0,0.0,0.0,0.0,0.0,0.0,-0.67,0.123,11.02,0.0,0.0,0.0,0.0,0.0,0.0,0.0,0.0,0.0
1576083376976064392,1393,0,,0.0,0.0,0.0,0.0,0.0,0.0,0.0,0.0,0.0,0.0,0.0,0.0,0.0,0.06,-0.0,-0.02,0.0,0.0,0.0,0.0,0.0,0.0,0.0,0.0,0.0,-0.231,1.198,9.37,0.0,0.0,0.0,0.0,0.0,0.0,0.0,0.0,0.0
1576083377063052140,1394,0,,0.0,0.0,0.0,0.0,0.0,0.0,0.0,0.0,0.0,0.0,0.0,0.0,0.0,0.029,-0.012,-0.1,0.0,0.0,0.0,0.0,0.0,0.0,0.0,0.0,0.0,-0.414,-0.129,9.43,0.0,0.0,0.0,0.0,0.0,0.0,0.0,0.0,0.0
1576083377108052745,1395,0,,0.0,0.0,0.0,0.0,0.0,0.0,0.0,0.0,0.0,0.0,0.0,0.0,0.0,0.03,0.018,-0.09,0.0,0.0,0.0,0.0,0.0,0.0,0.0,0.0,0.0,-0.357,0.372,9.38,0.0,0.0,0.0,0.0,0.0,0.0,0.0,0.0,0.0
1576083377173209058,1396,0,,0.0,0.0,0.0,0.0,0.0,0.0,0.0,0.0,0.0,0.0,0.0,0.0,0.0,0.013,-0.011,-0.08,0.0,0.0,0.0,0.0,0.0,0.0,0.0,0.0,0.0,-0.925,-0.09,8.29,0.0,0.0,0.0,0.0,0.0,0.0,0.0,0.0,0.0
1576083377316925955,1397,0,,0.0,0.0,0.0,0.0,0.0,0.0,0.0,0.0,0.0,0.0,0.0,0.0,0.0,-0.001,-0.006,0.03,0.0,0.0,0.0,0.0,0.0,0.0,0.0,0.0,0.0,-0.976,-0.062,9.82,0.0,0.0,0.0,0.0,0.0,0.0,0.0,0.0,0.0
1576083377433588752,1398,0,,0.0,0.0,0.0,0.0,0.0,0.0,0.0,0.0,0.0,0.0,0.0,0.0,0.0,0.041,0.032,0.12,0.0,0.0,0.0,0.0,0.0,0.0,0.0,0.0,0.0,-0.294,-0.814,8.84,0.0,0.0,0.0,0.0,0.0,0.0,0.0,0.0,0.0
1576083377503113372,1399,0,,0.0,0.0,0.0,0.0,0.0,0.0,0.0,0.0,0.0,0.0,0.0,0.0,0.0,-0.035,-0.024,0.12,0.0,0.0,0.0,0.0,0.0,0.0,0.0,0.0,0.0,-1.307,-0.125,9.43,0.0,0.0,0.0,0.0,0.0,0.0,0.0,0.0,0.0
1576083377569192447,1400,0,,0.0,0.0,0.0,0.0,0.0,0.0,0.0,0.0,0.0,0.0,0.0,0.0,0.0,0.121,0.044,0.26,0.0,0.0,0.0,0.0,0.0,0.0,0.0,0.0,0.0,0.666,1.209,8.72,0.0,0.0,0.0,0.0,0.0,0.0,0.0,0.0,0.0
1576083377633350362,1401,0,,0.0,0.0,0.0,0.0,0.0,0.0,0.0,0.0,0.0,0.0,0.0,0.0,0.0,-0.017,0.024,0.3,0.0,0.0,0.0,0.0,0.0,0.0,0.0,0.0,0.0,-3.02,1.024,12.02,0.0,0.0,0.0,0.0,0.0,0.0,0.0,0.0,0.0
1576083377704411248,1402,0,,0.0,0.0,0.0,0.0,0.0,0.0,0.0,0.0,0.0,0.0,0.0,0.0,0.0,-0.073,-0.021,0.12,0.0,0.0,0.0,0.0,0.0,0.0,0.0,0.0,0.0,1.555,0.652,17.66,0.0,0.0,0.0,0.0,0.0,0.0,0.0,0.0,0.0
1576083377770603022,1403,0,,0.0,0.0,0.0,0.0,0.0,0.0,0.0,0.0,0.0,0.0,0.0,0.0,0.0,-0.06,0.018,0.16,0.0,0.0,0.0,0.0,0.0,0.0,0.0,0.0,0.0,0.711,0.99,8.56,0.0,0.0,0.0,0.0,0.0,0.0,0.0,0.0,0.0
1576083377855429608,1404,0,,0.0,0.0,0.0,0.0,0.0,0.0,0.0,0.0,0.0,0.0,0.0,0.0,0.0,-0.044,0.01,0.04,0.0,0.0,0.0,0.0,0.0,0.0,0.0,0.0,0.0,0.018,-0.081,9.54,0.0,0.0,0.0,0.0,0.0,0.0,0.0,0.0,0.0
1576083377902729691,1405,0,,0.0,0.0,0.0,0.0,0.0,0.0,0.0,0.0,0.0,0.0,0.0,0.0,0.0,-0.029,0.076,-0.01,0.0,0.0,0.0,0.0,0.0,0.0,0.0,0.0,0.0,-1.041,-0.696,8.6,0.0,0.0,0.0,0.0,0.0,0.0,0.0,0.0,0.0
1576083377971655793,1406,0,,0.0,0.0,0.0,0.0,0.0,0.0,0.0,0.0,0.0,0.0,0.0,0.0,0.0,0.079,0.005,-0.1,0.0,0.0,0.0,0.0,0.0,0.0,0.0,0.0,0.0,-0.35,0.602,12.01,0.0,0.0,0.0,0.0,0.0,0.0,0.0,0.0,0.0
1576083378053546142,1407,0,,0.0,0.0,0.0,0.0,0.0,0.0,0.0,0.0,0.0,0.0,0.0,0.0,0.0,0.073,-0.08,-0.09,0.0,0.0,0.0,0.0,0.0,0.0,0.0,0.0,0.0,-0.02,1.314,8.85,0.0,0.0,0.0,0.0,0.0,0.0,0.0,0.0,0.0
1576083378105158510,1408,0,,0.0,0.0,0.0,0.0,0.0,0.0,0.0,0.0,0.0,0.0,0.0,0.0,0.0,0.025,0.032,-0.05,0.0,0.0,0.0,0.0,0.0,0.0,0.0,0.0,0.0,-0.584,-0.592,10.59,0.0,0.0,0.0,0.0,0.0,0.0,0.0,0.0,0.0
1576083378173645616,1409,0,,0.0,0.0,0.0,0.0,0.0,0.0,0.0,0.0,0.0,0.0,0.0,0.0,0.0,0.014,0.045,-0.03,0.0,0.0,0.0,0.0,0.0,0.0,0.0,0.0,0.0,-0.858,2.02,9.14,0.0,0.0,0.0,0.0,0.0,0.0,0.0,0.0,0.0
1576083378259347748,1410,0,,0.0,0.0,0.0,0.0,0.0,0.0,0.0,0.0,0.0,0.0,0.0,0.0,0.0,-0.031,0.024,-0.04,0.0,0.0,0.0,0.0,0.0,0.0,0.0,0.0,0.0,-0.574,-0.599,9.59,0.0,0.0,0.0,0.0,0.0,0.0,0.0,0.0,0.0
1576083378306589536,1411,0,,0.0,0.0,0.0,0.0,0.0,0.0,0.0,0.0,0.0,0.0,0.0,0.0,0.0,0.039,0.021,0.03,0.0,0.0,0.0,0.0,0.0,0.0,0.0,0.0,0.0,-0.413,0.63,7.63,0.0,0.0,0.0,0.0,0.0,0.0,0.0,0.0,0.0
1576083378375577595,1412,0,,0.0,0.0,0.0,0.0,0.0,0.0,0.0,0.0,0.0,0.0,0.0,0.0,0.0,-0.027,0.035,0.07,0.0,0.0,0.0,0.0,0.0,0.0,0.0,0.0,0.0,-0.272,0.518,11.38,0.0,0.0,0.0,0.0,0.0,0.0,0.0,0.0,0.0
1576083378455922640,1413,0,,0.0,0.0,0.0,0.0,0.0,0.0,0.0,0.0,0.0,0.0,0.0,0.0,0.0,-0.006,0.036,0.07,0.0,0.0,0.0,0.0,0.0,0.0,0.0,0.0,0.0,-1.169,0.358,9.43,0.0,0.0,0.0,0.0,0.0,0.0,0.0,0.0,0.0
1576083378509106910,1414,0,,0.0,0.0,0.0,0.0,0.0,0.0,0.0,0.0,0.0,0.0,0.0,0.0,0.0,-0.019,0.041,0.05,0.0,0.0,0.0,0.0,0.0,0.0,0.0,0.0,0.0,-0.343,0.798,9.36,0.0,0.0,0.0,0.0,0.0,0.0,0.0,0.0,0.0
1576083378597395363,1415,0,,0.0,0.0,0.0,0.0,0.0,0.0,0.0,0.0,0.0,0.0,0.0,0.0,0.0,-0.001,0.023,-0.0,0.0,0.0,0.0,0.0,0.0,0.0,0.0,0.0,0.0,-0.696,0.393,9.12,0.0,0.0,0.0,0.0,0.0,0.0,0.0,0.0,0.0
